workerId;assignmentId;hitId;curtime;OSName;browserName;country;IP;trialn;shown;response;feedback;responseTime;fbcondition;phase;score
A22SZHZTF72TRM;;2JV21O3W5XH03321GDBYKPLTI9QBHD;1352253744;;Chrome-22;United States;209.23.243.42;1;377;155;0;;-1;1;0
A22SZHZTF72TRM;;2JV21O3W5XH03321GDBYKPLTI9QBHD;1352253750;;Chrome-22;United States;209.23.243.42;2;382;210;0;;-1;1;2
A22SZHZTF72TRM;;2JV21O3W5XH03321GDBYKPLTI9QBHD;1352253761;;Chrome-22;United States;209.23.243.42;3;226;210;0;;-1;1;12
A22SZHZTF72TRM;;2JV21O3W5XH03321GDBYKPLTI9QBHD;1352253767;;Chrome-22;United States;209.23.243.42;4;359;240;0;;-1;1;17
A22SZHZTF72TRM;;2JV21O3W5XH03321GDBYKPLTI9QBHD;1352253772;;Chrome-22;United States;209.23.243.42;5;219;190;0;;-1;1;26
A22SZHZTF72TRM;;2JV21O3W5XH03321GDBYKPLTI9QBHD;1352253778;;Chrome-22;United States;209.23.243.42;6;324;225;0;;-1;1;32
A22SZHZTF72TRM;;2JV21O3W5XH03321GDBYKPLTI9QBHD;1352253782;;Chrome-22;United States;209.23.243.42;7;125;80;0;;-1;1;36
A22SZHZTF72TRM;;2JV21O3W5XH03321GDBYKPLTI9QBHD;1352253787;;Chrome-22;United States;209.23.243.42;8;159;160;0;;-1;1;46
A22SZHZTF72TRM;;2JV21O3W5XH03321GDBYKPLTI9QBHD;1352253792;;Chrome-22;United States;209.23.243.42;9;248;210;0;;-1;1;55
A22SZHZTF72TRM;;2JV21O3W5XH03321GDBYKPLTI9QBHD;1352253798;;Chrome-22;United States;209.23.243.42;10;64;60;0;;-1;1;65
A22SZHZTF72TRM;;2JV21O3W5XH03321GDBYKPLTI9QBHD;1352253804;;Chrome-22;United States;209.23.243.42;11;292;310;0;;-1;1;75
A22SZHZTF72TRM;;2JV21O3W5XH03321GDBYKPLTI9QBHD;1352253811;;Chrome-22;United States;209.23.243.42;12;360;360;0;;-1;1;85
A22SZHZTF72TRM;;2JV21O3W5XH03321GDBYKPLTI9QBHD;1352253818;;Chrome-22;United States;209.23.243.42;13;409;420;0;;-1;1;95
A22SZHZTF72TRM;;2JV21O3W5XH03321GDBYKPLTI9QBHD;1352253824;;Chrome-22;United States;209.23.243.42;14;31;25;0;;-1;1;103
A22SZHZTF72TRM;;2JV21O3W5XH03321GDBYKPLTI9QBHD;1352253829;;Chrome-22;United States;209.23.243.42;15;70;45;0;;-1;1;107
A22SZHZTF72TRM;;2JV21O3W5XH03321GDBYKPLTI9QBHD;1352253834;;Chrome-22;United States;209.23.243.42;16;51;40;0;;-1;1;115
A2YKFDGF4WVI1O;;2JV21O3W5XH03321GDBYKPLTI9QBHD;1352253836;;Firefox-16;United States;98.235.170.87;1;16;10;0;;1;1;4
A309BLCQJHQULO;;2JV21O3W5XH03321GDBYKPLTI9QBHD;1352253837;;Chrome-22;United States;97.103.144.202;1;390;247;0;;0;1;4
A3IL7ZPRL8SU05;;2JV21O3W5XH03321GDBYKPLTI9QBHD;1352253837;;Safari-6;United States;184.1.25.30;1;13;8;0;;-1;1;4
A22SZHZTF72TRM;;2JV21O3W5XH03321GDBYKPLTI9QBHD;1352253839;;Chrome-22;United States;209.23.243.42;17;468;550;0;;-1;1;124
A309BLCQJHQULO;;2JV21O3W5XH03321GDBYKPLTI9QBHD;1352253842;;Chrome-22;United States;97.103.144.202;2;188;175;0;;0;1;14
A2YKFDGF4WVI1O;;2JV21O3W5XH03321GDBYKPLTI9QBHD;1352253843;;Firefox-16;United States;98.235.170.87;2;449;222;0;;1;1;5
A22SZHZTF72TRM;;2JV21O3W5XH03321GDBYKPLTI9QBHD;1352253845;;Chrome-22;United States;209.23.243.42;18;44;50;0;;-1;1;133
A3IL7ZPRL8SU05;;2JV21O3W5XH03321GDBYKPLTI9QBHD;1352253845;;Safari-6;United States;184.1.25.30;2;184;120;0;;-1;1;9
A309BLCQJHQULO;;2JV21O3W5XH03321GDBYKPLTI9QBHD;1352253848;;Chrome-22;United States;97.103.144.202;3;455;435;0;;0;1;24
A22SZHZTF72TRM;;2JV21O3W5XH03321GDBYKPLTI9QBHD;1352253849;;Chrome-22;United States;209.23.243.42;19;86;80;0;;-1;1;143
A2YKFDGF4WVI1O;;2JV21O3W5XH03321GDBYKPLTI9QBHD;1352253850;;Firefox-16;United States;98.235.170.87;3;445;320;0;;1;1;11
A3IL7ZPRL8SU05;;2JV21O3W5XH03321GDBYKPLTI9QBHD;1352253851;;Safari-6;United States;184.1.25.30;3;285;200;0;;-1;1;15
A6AE4JPL2X6ZH;;2JV21O3W5XH03321GDBYKPLTI9QBHD;1352253852;;Firefox-16;United States;108.230.236.114;1;135;100;0;;-1;1;7
A309BLCQJHQULO;;2JV21O3W5XH03321GDBYKPLTI9QBHD;1352253853;;Chrome-22;United States;97.103.144.202;4;48;88;0;;0;1;26
A22SZHZTF72TRM;;2JV21O3W5XH03321GDBYKPLTI9QBHD;1352253854;;Chrome-22;United States;209.23.243.42;20;42;40;0;;-1;1;153
A3IL7ZPRL8SU05;;2JV21O3W5XH03321GDBYKPLTI9QBHD;1352253857;;Safari-6;United States;184.1.25.30;4;329;200;0;;-1;1;18
A2YKFDGF4WVI1O;;2JV21O3W5XH03321GDBYKPLTI9QBHD;1352253859;;Firefox-16;United States;98.235.170.87;4;223;195;0;;1;1;20
A22SZHZTF72TRM;;2JV21O3W5XH03321GDBYKPLTI9QBHD;1352253859;;Chrome-22;United States;209.23.243.42;21;405;450;0;;-1;1;163
AXOR2N1EAFVYF;;2JV21O3W5XH03321GDBYKPLTI9QBHD;1352253861;;Chrome-22;United States;24.15.223.10;1;92;80;0;;-1;1;9
A3IL7ZPRL8SU05;;2JV21O3W5XH03321GDBYKPLTI9QBHD;1352253864;;Safari-6;United States;184.1.25.30;5;287;190;0;;-1;1;23
A1F14BB4PV053A;;2JV21O3W5XH03321GDBYKPLTI9QBHD;1352253864;;Firefox-14;United States;76.181.205.211;1;483;301;0;;0;1;4
A22SZHZTF72TRM;;2JV21O3W5XH03321GDBYKPLTI9QBHD;1352253865;;Chrome-22;United States;209.23.243.42;22;323;490;0;;-1;1;168
AXOR2N1EAFVYF;;2JV21O3W5XH03321GDBYKPLTI9QBHD;1352253866;;Chrome-22;United States;24.15.223.10;2;223;150;0;;-1;1;14
A309BLCQJHQULO;;2JV21O3W5XH03321GDBYKPLTI9QBHD;1352253866;;Chrome-22;United States;97.103.144.202;5;23;67;0;;0;1;26
A2YKFDGF4WVI1O;;2JV21O3W5XH03321GDBYKPLTI9QBHD;1352253866;;Firefox-16;United States;98.235.170.87;5;235;166;0;;1;1;26
A22SZHZTF72TRM;;2JV21O3W5XH03321GDBYKPLTI9QBHD;1352253870;;Chrome-22;United States;209.23.243.42;23;467;550;0;;-1;1;177
A3IL7ZPRL8SU05;;2JV21O3W5XH03321GDBYKPLTI9QBHD;1352253870;;Safari-6;United States;184.1.25.30;6;346;260;0;;-1;1;30
AXOR2N1EAFVYF;;2JV21O3W5XH03321GDBYKPLTI9QBHD;1352253872;;Chrome-22;United States;24.15.223.10;3;381;200;0;;-1;1;16
A2YKFDGF4WVI1O;;2JV21O3W5XH03321GDBYKPLTI9QBHD;1352253874;;Firefox-16;United States;98.235.170.87;6;421;349;0;;1;1;35
A1F14BB4PV053A;;2JV21O3W5XH03321GDBYKPLTI9QBHD;1352253874;;Firefox-14;United States;76.181.205.211;2;8;12;0;;0;1;9
A22SZHZTF72TRM;;2JV21O3W5XH03321GDBYKPLTI9QBHD;1352253877;;Chrome-22;United States;209.23.243.42;24;231;275;0;;-1;1;186
A309BLCQJHQULO;;2JV21O3W5XH03321GDBYKPLTI9QBHD;1352253878;;Chrome-22;United States;97.103.144.202;6;397;500;0;;0;1;34
A3IL7ZPRL8SU05;;2JV21O3W5XH03321GDBYKPLTI9QBHD;1352253878;;Safari-6;United States;184.1.25.30;7;45;35;0;;-1;1;38
AXOR2N1EAFVYF;;2JV21O3W5XH03321GDBYKPLTI9QBHD;1352253879;;Chrome-22;United States;24.15.223.10;4;378;115;0;;-1;1;16
A1F14BB4PV053A;;2JV21O3W5XH03321GDBYKPLTI9QBHD;1352253880;;Firefox-14;United States;76.181.205.211;3;393;750;0;;0;1;11
A2YKFDGF4WVI1O;;2JV21O3W5XH03321GDBYKPLTI9QBHD;1352253881;;Firefox-16;United States;98.235.170.87;7;410;442;0;;1;1;45
A22SZHZTF72TRM;;2JV21O3W5XH03321GDBYKPLTI9QBHD;1352253882;;Chrome-22;United States;209.23.243.42;25;375;390;0;;-1;1;196
A6AE4JPL2X6ZH;;2JV21O3W5XH03321GDBYKPLTI9QBHD;1352253882;;Firefox-16;United States;108.230.236.114;2;112;70;0;;-1;1;11
A3IL7ZPRL8SU05;;2JV21O3W5XH03321GDBYKPLTI9QBHD;1352253883;;Safari-6;United States;184.1.25.30;8;338;340;0;;-1;1;48
A309BLCQJHQULO;;2JV21O3W5XH03321GDBYKPLTI9QBHD;1352253883;;Chrome-22;United States;97.103.144.202;7;116;200;0;;0;1;37
AXOR2N1EAFVYF;;2JV21O3W5XH03321GDBYKPLTI9QBHD;1352253883;;Chrome-22;United States;24.15.223.10;5;104;30;0;;-1;1;16
A39RBYX03I6A51;;2JV21O3W5XH03321GDBYKPLTI9QBHD;1352253884;;Chrome-8;India;180.215.8.191;1;273;0;0;;1;1;0
A1P5N4F97A45O1;;2JV21O3W5XH03321GDBYKPLTI9QBHD;1352253884;;Safari-6;United States;68.8.120.57;1;58;75;0;;-1;1;7
A22SZHZTF72TRM;;2JV21O3W5XH03321GDBYKPLTI9QBHD;1352253887;;Chrome-22;United States;209.23.243.42;26;421;430;0;;-1;1;206
A309BLCQJHQULO;;2JV21O3W5XH03321GDBYKPLTI9QBHD;1352253887;;Chrome-22;United States;97.103.144.202;8;266;200;0;;0;1;44
A3IL7ZPRL8SU05;;2JV21O3W5XH03321GDBYKPLTI9QBHD;1352253887;;Safari-6;United States;184.1.25.30;9;340;380;0;;-1;1;57
A2YKFDGF4WVI1O;;2JV21O3W5XH03321GDBYKPLTI9QBHD;1352253889;;Firefox-16;United States;98.235.170.87;8;228;154;0;;1;1;50
A6AE4JPL2X6ZH;;2JV21O3W5XH03321GDBYKPLTI9QBHD;1352253889;;Firefox-16;United States;108.230.236.114;3;444;175;0;;-1;1;11
A1P5N4F97A45O1;;2JV21O3W5XH03321GDBYKPLTI9QBHD;1352253889;;Safari-6;United States;68.8.120.57;2;147;200;0;;-1;1;14
AXOR2N1EAFVYF;;2JV21O3W5XH03321GDBYKPLTI9QBHD;1352253889;;Chrome-22;United States;24.15.223.10;6;444;90;0;;-1;1;16
A1F14BB4PV053A;;2JV21O3W5XH03321GDBYKPLTI9QBHD;1352253890;;Firefox-14;United States;76.181.205.211;4;343;2050;0;;0;1;11
A309BLCQJHQULO;;2JV21O3W5XH03321GDBYKPLTI9QBHD;1352253892;;Chrome-22;United States;97.103.144.202;9;426;350;0;;0;1;52
A3IL7ZPRL8SU05;;2JV21O3W5XH03321GDBYKPLTI9QBHD;1352253892;;Safari-6;United States;184.1.25.30;10;412;350;0;;-1;1;66
AXOR2N1EAFVYF;;2JV21O3W5XH03321GDBYKPLTI9QBHD;1352253893;;Chrome-22;United States;24.15.223.10;7;358;100;0;;-1;1;16
A1P5N4F97A45O1;;2JV21O3W5XH03321GDBYKPLTI9QBHD;1352253894;;Safari-6;United States;68.8.120.57;3;443;800;0;;-1;1;16
A6AE4JPL2X6ZH;;2JV21O3W5XH03321GDBYKPLTI9QBHD;1352253895;;Firefox-16;United States;108.230.236.114;4;210;100;0;;-1;1;12
A22SZHZTF72TRM;;2JV21O3W5XH03321GDBYKPLTI9QBHD;1352253896;;Chrome-22;United States;209.23.243.42;27;68;50;0;;-1;1;213
A2YKFDGF4WVI1O;;2JV21O3W5XH03321GDBYKPLTI9QBHD;1352253896;;Firefox-16;United States;98.235.170.87;9;156;43;0;;1;1;50
A39RBYX03I6A51;;2JV21O3W5XH03321GDBYKPLTI9QBHD;1352253897;;Chrome-8;India;180.215.8.191;2;307;0;0;;1;1;0
A1FRRZ7VEVQ2Y9;;2JV21O3W5XH03321GDBYKPLTI9QBHD;1352253897;;Chrome-22;United States;128.111.173.2;1;333;350;0;;-1;1;10
A1F14BB4PV053A;;2JV21O3W5XH03321GDBYKPLTI9QBHD;1352253898;;Firefox-14;United States;76.181.205.211;5;102;305;0;;0;1;11
A309BLCQJHQULO;;2JV21O3W5XH03321GDBYKPLTI9QBHD;1352253898;;Chrome-22;United States;97.103.144.202;10;172;150;0;;0;1;61
A3IL7ZPRL8SU05;;2JV21O3W5XH03321GDBYKPLTI9QBHD;1352253899;;Safari-6;United States;184.1.25.30;11;71;50;0;;-1;1;72
A1P5N4F97A45O1;;2JV21O3W5XH03321GDBYKPLTI9QBHD;1352253899;;Safari-6;United States;68.8.120.57;4;279;500;0;;-1;1;18
AXOR2N1EAFVYF;;2JV21O3W5XH03321GDBYKPLTI9QBHD;1352253899;;Chrome-22;United States;24.15.223.10;8;85;50;0;;-1;1;19
A2SYRFPPV9WDEG;;2JV21O3W5XH03321GDBYKPLTI9QBHD;1352253900;;Firefox-19;United States;66.75.77.46;1;421;800;0;;-1;1;2
A2YKFDGF4WVI1O;;2JV21O3W5XH03321GDBYKPLTI9QBHD;1352253902;;Firefox-16;United States;98.235.170.87;10;118;66;0;;1;1;52
A309BLCQJHQULO;;2JV21O3W5XH03321GDBYKPLTI9QBHD;1352253904;;Chrome-22;United States;97.103.144.202;11;317;245;0;;0;1;68
A22SZHZTF72TRM;;2JV21O3W5XH03321GDBYKPLTI9QBHD;1352253904;;Chrome-22;United States;209.23.243.42;28;285;120;0;;-1;1;213
AXOR2N1EAFVYF;;2JV21O3W5XH03321GDBYKPLTI9QBHD;1352253904;;Chrome-22;United States;24.15.223.10;9;460;200;0;;-1;1;19
A1P5N4F97A45O1;;2JV21O3W5XH03321GDBYKPLTI9QBHD;1352253904;;Safari-6;United States;68.8.120.57;5;198;100;0;;-1;1;19
A1F14BB4PV053A;;2JV21O3W5XH03321GDBYKPLTI9QBHD;1352253905;;Firefox-14;United States;76.181.205.211;6;286;425;0;;0;1;16
A39RBYX03I6A51;;2JV21O3W5XH03321GDBYKPLTI9QBHD;1352253906;;Chrome-8;India;180.215.8.191;3;91;130;0;;1;1;6
A3IL7ZPRL8SU05;;2JV21O3W5XH03321GDBYKPLTI9QBHD;1352253906;;Safari-6;United States;184.1.25.30;12;263;250;0;;-1;1;82
A1FRRZ7VEVQ2Y9;;2JV21O3W5XH03321GDBYKPLTI9QBHD;1352253908;;Chrome-22;United States;128.111.173.2;2;257;475;0;;-1;1;12
A2YKFDGF4WVI1O;;2JV21O3W5XH03321GDBYKPLTI9QBHD;1352253908;;Firefox-16;United States;98.235.170.87;11;260;198;0;;1;1;59
A2SYRFPPV9WDEG;;2JV21O3W5XH03321GDBYKPLTI9QBHD;1352253908;;Firefox-19;United States;66.75.77.46;2;51;400;0;;-1;1;2
A3E0AY1XXP8IBQ;;2JV21O3W5XH03321GDBYKPLTI9QBHD;1352253908;;Firefox-16;United States;98.206.76.203;1;191;55;0;;-1;1;0
AXOR2N1EAFVYF;;2JV21O3W5XH03321GDBYKPLTI9QBHD;1352253908;;Chrome-22;United States;24.15.223.10;10;265;150;0;;-1;1;21
A309BLCQJHQULO;;2JV21O3W5XH03321GDBYKPLTI9QBHD;1352253908;;Chrome-22;United States;97.103.144.202;12;331;300;0;;0;1;78
A1SFZ9BHP4WSAQ;;2JV21O3W5XH03321GDBYKPLTI9QBHD;1352253909;;Firefox-16;United States;50.55.177.153;1;363;260;0;;0;1;6
A1P5N4F97A45O1;;2JV21O3W5XH03321GDBYKPLTI9QBHD;1352253909;;Safari-6;United States;68.8.120.57;6;147;100;0;;-1;1;24
A22SZHZTF72TRM;;2JV21O3W5XH03321GDBYKPLTI9QBHD;1352253910;;Chrome-22;United States;209.23.243.42;29;150;140;0;;-1;1;223
A31A74EUH1VI3G;;2JV21O3W5XH03321GDBYKPLTI9QBHD;1352253910;;Chrome-22;United States;98.16.170.225;1;303;125;0;;0;1;0
A3IL7ZPRL8SU05;;2JV21O3W5XH03321GDBYKPLTI9QBHD;1352253911;;Safari-6;United States;184.1.25.30;13;326;370;0;;-1;1;91
A1F14BB4PV053A;;2JV21O3W5XH03321GDBYKPLTI9QBHD;1352253911;;Firefox-14;United States;76.181.205.211;7;353;555;0;;0;1;20
A39RBYX03I6A51;;2JV21O3W5XH03321GDBYKPLTI9QBHD;1352253912;;Chrome-8;India;180.215.8.191;4;349;200;0;;1;1;9
A3E0AY1XXP8IBQ;;2JV21O3W5XH03321GDBYKPLTI9QBHD;1352253912;;Firefox-16;United States;98.206.76.203;2;208;101;0;;-1;1;1
AXOR2N1EAFVYF;;2JV21O3W5XH03321GDBYKPLTI9QBHD;1352253913;;Chrome-22;United States;24.15.223.10;11;498;250;0;;-1;1;22
A2YKFDGF4WVI1O;;2JV21O3W5XH03321GDBYKPLTI9QBHD;1352253914;;Firefox-16;United States;98.235.170.87;12;114;78;0;;1;1;64
A23JZKX95M40CY;;2JV21O3W5XH03321GDBYKPLTI9QBHD;1352253914;;Chrome-22;United States;98.154.17.0;1;442;86;0;;0;1;0
A2SYRFPPV9WDEG;;2JV21O3W5XH03321GDBYKPLTI9QBHD;1352253914;;Firefox-19;United States;66.75.77.46;3;236;500;0;;-1;1;3
A1P5N4F97A45O1;;2JV21O3W5XH03321GDBYKPLTI9QBHD;1352253915;;Safari-6;United States;68.8.120.57;7;169;100;0;;-1;1;27
A309BLCQJHQULO;;2JV21O3W5XH03321GDBYKPLTI9QBHD;1352253915;;Chrome-22;United States;97.103.144.202;13;448;400;0;;0;1;87
A1SFZ9BHP4WSAQ;;2JV21O3W5XH03321GDBYKPLTI9QBHD;1352253915;;Firefox-16;United States;50.55.177.153;2;99;130;0;;0;1;13
A3IL7ZPRL8SU05;;2JV21O3W5XH03321GDBYKPLTI9QBHD;1352253916;;Safari-6;United States;184.1.25.30;14;233;180;0;;-1;1;98
A22SZHZTF72TRM;;2JV21O3W5XH03321GDBYKPLTI9QBHD;1352253916;;Chrome-22;United States;209.23.243.42;30;417;380;0;;-1;1;233
A140WD05T13AVN;;2JV21O3W5XH03321GDBYKPLTI9QBHD;1352253916;;Chrome-22;United States;67.140.76.21;1;420;500;0;;0;1;9
A1FRRZ7VEVQ2Y9;;2JV21O3W5XH03321GDBYKPLTI9QBHD;1352253916;;Chrome-22;United States;128.111.173.2;3;495;750;0;;-1;1;17
A1F14BB4PV053A;;2JV21O3W5XH03321GDBYKPLTI9QBHD;1352253917;;Firefox-14;United States;76.181.205.211;8;494;620;0;;0;1;28
AXOR2N1EAFVYF;;2JV21O3W5XH03321GDBYKPLTI9QBHD;1352253917;;Chrome-22;United States;24.15.223.10;12;245;100;0;;-1;1;22
A3E0AY1XXP8IBQ;;2JV21O3W5XH03321GDBYKPLTI9QBHD;1352253918;;Firefox-16;United States;98.206.76.203;3;414;150;0;;-1;1;1
A39RBYX03I6A51;;2JV21O3W5XH03321GDBYKPLTI9QBHD;1352253918;;Chrome-8;India;180.215.8.191;5;313;450;0;;1;1;15
A31A74EUH1VI3G;;2JV21O3W5XH03321GDBYKPLTI9QBHD;1352253919;;Chrome-22;United States;98.16.170.225;2;41;58;0;;0;1;6
A23JZKX95M40CY;;2JV21O3W5XH03321GDBYKPLTI9QBHD;1352253919;;Chrome-22;United States;98.154.17.0;2;359;146;0;;0;1;0
A309BLCQJHQULO;;2JV21O3W5XH03321GDBYKPLTI9QBHD;1352253920;;Chrome-22;United States;97.103.144.202;14;479;400;0;;0;1;96
A2YKFDGF4WVI1O;;2JV21O3W5XH03321GDBYKPLTI9QBHD;1352253920;;Firefox-16;United States;98.235.170.87;13;279;266;0;;1;1;74
A1P5N4F97A45O1;;2JV21O3W5XH03321GDBYKPLTI9QBHD;1352253920;;Safari-6;United States;68.8.120.57;8;109;75;0;;-1;1;32
A1SFZ9BHP4WSAQ;;2JV21O3W5XH03321GDBYKPLTI9QBHD;1352253921;;Firefox-16;United States;50.55.177.153;3;95;60;0;;0;1;17
A2SYRFPPV9WDEG;;2JV21O3W5XH03321GDBYKPLTI9QBHD;1352253921;;Firefox-19;United States;66.75.77.46;4;96;250;0;;-1;1;3
AXOR2N1EAFVYF;;2JV21O3W5XH03321GDBYKPLTI9QBHD;1352253921;;Chrome-22;United States;24.15.223.10;13;341;150;0;;-1;1;23
A22SZHZTF72TRM;;2JV21O3W5XH03321GDBYKPLTI9QBHD;1352253921;;Chrome-22;United States;209.23.243.42;31;207;120;178;;-1;2;238
A3E0AY1XXP8IBQ;;2JV21O3W5XH03321GDBYKPLTI9QBHD;1352253922;;Firefox-16;United States;98.206.76.203;4;66;20;0;;-1;1;1
A1FRRZ7VEVQ2Y9;;2JV21O3W5XH03321GDBYKPLTI9QBHD;1352253922;;Chrome-22;United States;128.111.173.2;4;226;500;0;;-1;1;18
A3IL7ZPRL8SU05;;2JV21O3W5XH03321GDBYKPLTI9QBHD;1352253923;;Safari-6;United States;184.1.25.30;15;143;120;0;;-1;1;107
A23JZKX95M40CY;;2JV21O3W5XH03321GDBYKPLTI9QBHD;1352253924;;Chrome-22;United States;98.154.17.0;3;175;99;0;;0;1;2
A39RBYX03I6A51;;2JV21O3W5XH03321GDBYKPLTI9QBHD;1352253924;;Chrome-8;India;180.215.8.191;6;12;25;0;;1;1;16
A31A74EUH1VI3G;;2JV21O3W5XH03321GDBYKPLTI9QBHD;1352253924;;Chrome-22;United States;98.16.170.225;3;261;250;0;;0;1;16
AXOR2N1EAFVYF;;2JV21O3W5XH03321GDBYKPLTI9QBHD;1352253924;;Chrome-22;United States;24.15.223.10;14;357;150;0;;-1;1;23
A2V1KDMAJ663EU;;2JV21O3W5XH03321GDBYKPLTI9QBHD;1352253925;;Chrome-22;United States;68.84.62.127;1;392;120;0;;1;1;0
A1P5N4F97A45O1;;2JV21O3W5XH03321GDBYKPLTI9QBHD;1352253925;;Safari-6;United States;68.8.120.57;9;450;400;0;;-1;1;41
A309BLCQJHQULO;;2JV21O3W5XH03321GDBYKPLTI9QBHD;1352253925;;Chrome-22;United States;97.103.144.202;15;202;200;0;;0;1;106
AXPFY62AF6SMP;;2JV21O3W5XH03321GDBYKPLTI9QBHD;1352253926;;Firefox-16;United States;70.114.163.35;1;464;102;0;;-1;1;0
A1F14BB4PV053A;;2JV21O3W5XH03321GDBYKPLTI9QBHD;1352253926;;Firefox-14;United States;76.181.205.211;9;456;785;0;;0;1;31
A140WD05T13AVN;;2JV21O3W5XH03321GDBYKPLTI9QBHD;1352253926;;Chrome-22;United States;67.140.76.21;2;375;600;0;;0;1;13
A3E0AY1XXP8IBQ;;2JV21O3W5XH03321GDBYKPLTI9QBHD;1352253926;;Firefox-16;United States;98.206.76.203;5;477;200;0;;-1;1;1
A2SYRFPPV9WDEG;;2JV21O3W5XH03321GDBYKPLTI9QBHD;1352253927;;Firefox-19;United States;66.75.77.46;5;432;800;0;;-1;1;5
A3IL7ZPRL8SU05;;2JV21O3W5XH03321GDBYKPLTI9QBHD;1352253927;;Safari-6;United States;184.1.25.30;16;316;400;0;;-1;1;115
A22SZHZTF72TRM;;2JV21O3W5XH03321GDBYKPLTI9QBHD;1352253927;;Chrome-22;United States;209.23.243.42;32;217;130;186;;-1;2;244
A1SFZ9BHP4WSAQ;;2JV21O3W5XH03321GDBYKPLTI9QBHD;1352253928;;Firefox-16;United States;50.55.177.153;4;337;250;0;;0;1;24
A2YKFDGF4WVI1O;;2JV21O3W5XH03321GDBYKPLTI9QBHD;1352253928;;Firefox-16;United States;98.235.170.87;14;416;422;0;;1;1;84
A23JZKX95M40CY;;2JV21O3W5XH03321GDBYKPLTI9QBHD;1352253928;;Chrome-22;United States;98.154.17.0;4;268;143;0;;0;1;4
A1FRRZ7VEVQ2Y9;;2JV21O3W5XH03321GDBYKPLTI9QBHD;1352253928;;Chrome-22;United States;128.111.173.2;5;271;700;0;;-1;1;18
A3J5KZUQO0EN8N;;2JV21O3W5XH03321GDBYKPLTI9QBHD;1352253928;;Chrome-22;India;115.243.221.244;1;337;79;0;;0;1;0
A1P5N4F97A45O1;;2JV21O3W5XH03321GDBYKPLTI9QBHD;1352253929;;Safari-6;United States;68.8.120.57;10;173;100;0;;-1;1;44
AXOR2N1EAFVYF;;2JV21O3W5XH03321GDBYKPLTI9QBHD;1352253929;;Chrome-22;United States;24.15.223.10;15;130;75;0;;-1;1;26
A309BLCQJHQULO;;2JV21O3W5XH03321GDBYKPLTI9QBHD;1352253930;;Chrome-22;United States;97.103.144.202;16;260;220;0;;0;1;115
A31A74EUH1VI3G;;2JV21O3W5XH03321GDBYKPLTI9QBHD;1352253930;;Chrome-22;United States;98.16.170.225;4;64;45;0;;0;1;22
A2V1KDMAJ663EU;;2JV21O3W5XH03321GDBYKPLTI9QBHD;1352253931;;Chrome-22;United States;68.84.62.127;2;435;225;0;;1;1;2
A23JZKX95M40CY;;2JV21O3W5XH03321GDBYKPLTI9QBHD;1352253932;;Chrome-22;United States;98.154.17.0;5;215;87;0;;0;1;4
A15VZBRE9J8PS5;;2JV21O3W5XH03321GDBYKPLTI9QBHD;1352253932;;Firefox-16;United States;69.12.207.61;1;23;32;0;;0;1;6
A22SZHZTF72TRM;;2JV21O3W5XH03321GDBYKPLTI9QBHD;1352253933;;Chrome-22;United States;209.23.243.42;33;140;110;122;;-1;2;254
AXOR2N1EAFVYF;;2JV21O3W5XH03321GDBYKPLTI9QBHD;1352253933;;Chrome-22;United States;24.15.223.10;16;132;75;0;;-1;1;28
A1FRRZ7VEVQ2Y9;;2JV21O3W5XH03321GDBYKPLTI9QBHD;1352253933;;Chrome-22;United States;128.111.173.2;6;20;25;0;;-1;1;26
A140WD05T13AVN;;2JV21O3W5XH03321GDBYKPLTI9QBHD;1352253933;;Chrome-22;United States;67.140.76.21;3;468;800;0;;0;1;16
A3IL7ZPRL8SU05;;2JV21O3W5XH03321GDBYKPLTI9QBHD;1352253933;;Safari-6;United States;184.1.25.30;17;305;260;0;;-1;1;124
A2SYRFPPV9WDEG;;2JV21O3W5XH03321GDBYKPLTI9QBHD;1352253933;;Firefox-19;United States;66.75.77.46;6;195;300;0;;-1;1;9
A1P5N4F97A45O1;;2JV21O3W5XH03321GDBYKPLTI9QBHD;1352253934;;Safari-6;United States;68.8.120.57;11;500;500;0;;-1;1;54
A2AB9WEOEPG7WR;;2JV21O3W5XH03321GDBYKPLTI9QBHD;1352253934;;Chrome-22;United States;68.199.87.165;1;126;100;0;;1;1;8
A2YKFDGF4WVI1O;;2JV21O3W5XH03321GDBYKPLTI9QBHD;1352253934;;Firefox-16;United States;98.235.170.87;15;431;288;0;;1;1;89
A1F14BB4PV053A;;2JV21O3W5XH03321GDBYKPLTI9QBHD;1352253934;;Firefox-14;United States;76.181.205.211;10;276;475;0;;0;1;34
A1SFZ9BHP4WSAQ;;2JV21O3W5XH03321GDBYKPLTI9QBHD;1352253934;;Firefox-16;United States;50.55.177.153;5;338;320;0;;0;1;34
AXPFY62AF6SMP;;2JV21O3W5XH03321GDBYKPLTI9QBHD;1352253934;;Firefox-16;United States;70.114.163.35;2;341;430;0;;-1;1;8
A309BLCQJHQULO;;2JV21O3W5XH03321GDBYKPLTI9QBHD;1352253935;;Chrome-22;United States;97.103.144.202;17;232;178;0;;0;1;122
A31A74EUH1VI3G;;2JV21O3W5XH03321GDBYKPLTI9QBHD;1352253935;;Chrome-22;United States;98.16.170.225;5;126;78;0;;0;1;26
A1D5T2IUI9TZNB;;2JV21O3W5XH03321GDBYKPLTI9QBHD;1352253937;;Firefox-16;United States;67.168.197.62;1;265;100;0;;0;1;0
AXOR2N1EAFVYF;;2JV21O3W5XH03321GDBYKPLTI9QBHD;1352253937;;Chrome-22;United States;24.15.223.10;17;45;50;0;;-1;1;38
A3E0AY1XXP8IBQ;;2JV21O3W5XH03321GDBYKPLTI9QBHD;1352253937;;Firefox-16;United States;98.206.76.203;6;90;50;0;;-1;1;3
A23JZKX95M40CY;;2JV21O3W5XH03321GDBYKPLTI9QBHD;1352253937;;Chrome-22;United States;98.154.17.0;6;40;69;0;;0;1;7
A2V1KDMAJ663EU;;2JV21O3W5XH03321GDBYKPLTI9QBHD;1352253937;;Chrome-22;United States;68.84.62.127;3;77;75;0;;1;1;12
A1FRRZ7VEVQ2Y9;;2JV21O3W5XH03321GDBYKPLTI9QBHD;1352253938;;Chrome-22;United States;128.111.173.2;7;249;27;0;;-1;1;26
A1P5N4F97A45O1;;2JV21O3W5XH03321GDBYKPLTI9QBHD;1352253938;;Safari-6;United States;68.8.120.57;12;439;600;0;;-1;1;61
A22SZHZTF72TRM;;2JV21O3W5XH03321GDBYKPLTI9QBHD;1352253939;;Chrome-22;United States;209.23.243.42;34;315;230;267;;-1;2;263
A1SFZ9BHP4WSAQ;;2JV21O3W5XH03321GDBYKPLTI9QBHD;1352253940;;Firefox-16;United States;50.55.177.153;6;24;20;0;;0;1;43
A2AB9WEOEPG7WR;;2JV21O3W5XH03321GDBYKPLTI9QBHD;1352253940;;Chrome-22;United States;68.199.87.165;2;390;225;0;;1;1;11
A31A74EUH1VI3G;;2JV21O3W5XH03321GDBYKPLTI9QBHD;1352253940;;Chrome-22;United States;98.16.170.225;6;162;100;0;;0;1;30
A140WD05T13AVN;;2JV21O3W5XH03321GDBYKPLTI9QBHD;1352253940;;Chrome-22;United States;67.140.76.21;4;395;550;0;;0;1;22
A2YKFDGF4WVI1O;;2JV21O3W5XH03321GDBYKPLTI9QBHD;1352253940;;Firefox-16;United States;98.235.170.87;16;256;188;0;;1;1;96
A1F14BB4PV053A;;2JV21O3W5XH03321GDBYKPLTI9QBHD;1352253940;;Firefox-14;United States;76.181.205.211;11;391;755;0;;0;1;36
A2SYRFPPV9WDEG;;2JV21O3W5XH03321GDBYKPLTI9QBHD;1352253940;;Firefox-19;United States;66.75.77.46;7;258;600;0;;-1;1;9
A309BLCQJHQULO;;2JV21O3W5XH03321GDBYKPLTI9QBHD;1352253940;;Chrome-22;United States;97.103.144.202;18;499;350;0;;0;1;128
A15VZBRE9J8PS5;;2JV21O3W5XH03321GDBYKPLTI9QBHD;1352253941;;Firefox-16;United States;69.12.207.61;2;300;285;0;;0;1;16
AXOR2N1EAFVYF;;2JV21O3W5XH03321GDBYKPLTI9QBHD;1352253941;;Chrome-22;United States;24.15.223.10;18;403;150;0;;-1;1;38
A23JZKX95M40CY;;2JV21O3W5XH03321GDBYKPLTI9QBHD;1352253941;;Chrome-22;United States;98.154.17.0;7;55;59;0;;0;1;17
A1D5T2IUI9TZNB;;2JV21O3W5XH03321GDBYKPLTI9QBHD;1352253942;;Firefox-16;United States;67.168.197.62;2;320;200;0;;0;1;4
A3IL7ZPRL8SU05;;2JV21O3W5XH03321GDBYKPLTI9QBHD;1352253942;;Safari-6;United States;184.1.25.30;18;18;19;0;;-1;1;134
A3E0AY1XXP8IBQ;;2JV21O3W5XH03321GDBYKPLTI9QBHD;1352253942;;Firefox-16;United States;98.206.76.203;7;411;400;0;;-1;1;13
A1P5N4F97A45O1;;2JV21O3W5XH03321GDBYKPLTI9QBHD;1352253942;;Safari-6;United States;68.8.120.57;13;372;500;0;;-1;1;68
AXPFY62AF6SMP;;2JV21O3W5XH03321GDBYKPLTI9QBHD;1352253943;;Firefox-16;United States;70.114.163.35;3;272;390;0;;-1;1;14
A3J5KZUQO0EN8N;;2JV21O3W5XH03321GDBYKPLTI9QBHD;1352253943;;Chrome-22;India;115.243.221.244;2;231;150;0;;0;1;4
A2V1KDMAJ663EU;;2JV21O3W5XH03321GDBYKPLTI9QBHD;1352253944;;Chrome-22;United States;68.84.62.127;4;497;300;0;;1;1;15
A22SZHZTF72TRM;;2JV21O3W5XH03321GDBYKPLTI9QBHD;1352253944;;Chrome-22;United States;209.23.243.42;35;252;240;215;;-1;2;272
A39RBYX03I6A51;;2JV21O3W5XH03321GDBYKPLTI9QBHD;1352253944;;Chrome-8;India;180.215.8.191;7;179;300;0;;1;1;19
A2SYRFPPV9WDEG;;2JV21O3W5XH03321GDBYKPLTI9QBHD;1352253945;;Firefox-19;United States;66.75.77.46;8;211;400;0;;-1;1;11
A309BLCQJHQULO;;2JV21O3W5XH03321GDBYKPLTI9QBHD;1352253945;;Chrome-22;United States;97.103.144.202;19;455;300;0;;0;1;133
A1SFZ9BHP4WSAQ;;2JV21O3W5XH03321GDBYKPLTI9QBHD;1352253945;;Firefox-16;United States;50.55.177.153;7;65;30;0;;0;1;44
A1F14BB4PV053A;;2JV21O3W5XH03321GDBYKPLTI9QBHD;1352253945;;Firefox-14;United States;76.181.205.211;12;256;755;0;;0;1;36
A2YKFDGF4WVI1O;;2JV21O3W5XH03321GDBYKPLTI9QBHD;1352253945;;Firefox-16;United States;98.235.170.87;17;430;399;0;;1;1;106
A2AB9WEOEPG7WR;;2JV21O3W5XH03321GDBYKPLTI9QBHD;1352253946;;Chrome-22;United States;68.199.87.165;3;499;225;0;;1;1;12
AXOR2N1EAFVYF;;2JV21O3W5XH03321GDBYKPLTI9QBHD;1352253946;;Chrome-22;United States;24.15.223.10;19;472;150;0;;-1;1;38
A140WD05T13AVN;;2JV21O3W5XH03321GDBYKPLTI9QBHD;1352253946;;Chrome-22;United States;67.140.76.21;5;52;100;0;;0;1;24
A3E0AY1XXP8IBQ;;2JV21O3W5XH03321GDBYKPLTI9QBHD;1352253947;;Firefox-16;United States;98.206.76.203;8;85;50;0;;-1;1;16
A1D5T2IUI9TZNB;;2JV21O3W5XH03321GDBYKPLTI9QBHD;1352253947;;Firefox-16;United States;67.168.197.62;3;105;50;0;;0;1;5
A1FRRZ7VEVQ2Y9;;2JV21O3W5XH03321GDBYKPLTI9QBHD;1352253947;;Chrome-22;United States;128.111.173.2;8;109;35;0;;-1;1;26
A31A74EUH1VI3G;;2JV21O3W5XH03321GDBYKPLTI9QBHD;1352253947;;Chrome-22;United States;98.16.170.225;7;391;285;0;;0;1;36
A1P5N4F97A45O1;;2JV21O3W5XH03321GDBYKPLTI9QBHD;1352253947;;Safari-6;United States;68.8.120.57;14;480;600;0;;-1;1;76
A3IL7ZPRL8SU05;;2JV21O3W5XH03321GDBYKPLTI9QBHD;1352253948;;Safari-6;United States;184.1.25.30;19;217;190;0;;-1;1;143
A23JZKX95M40CY;;2JV21O3W5XH03321GDBYKPLTI9QBHD;1352253948;;Chrome-22;United States;98.154.17.0;8;40;78;0;;0;1;18
A22SZHZTF72TRM;;2JV21O3W5XH03321GDBYKPLTI9QBHD;1352253949;;Chrome-22;United States;209.23.243.42;36;292;250;248;;-1;2;282
A6AE4JPL2X6ZH;;2JV21O3W5XH03321GDBYKPLTI9QBHD;1352253949;;Firefox-16;United States;108.230.236.114;5;445;75;0;;-1;1;12
A1Q8F185LEGWP9;;2JV21O3W5XH03321GDBYKPLTI9QBHD;1352253949;;Firefox-16;United States;74.235.191.63;1;33;25;0;;0;1;7
AXPFY62AF6SMP;;2JV21O3W5XH03321GDBYKPLTI9QBHD;1352253949;;Firefox-16;United States;70.114.163.35;4;451;546;0;;-1;1;23
A2V1KDMAJ663EU;;2JV21O3W5XH03321GDBYKPLTI9QBHD;1352253949;;Chrome-22;United States;68.84.62.127;5;37;35;0;;1;1;25
A309BLCQJHQULO;;2JV21O3W5XH03321GDBYKPLTI9QBHD;1352253950;;Chrome-22;United States;97.103.144.202;20;323;300;0;;0;1;143
A2QF8NUVGZY90J;;2JV21O3W5XH03321GDBYKPLTI9QBHD;1352253950;;Firefox-16;United States;68.96.97.86;1;336;250;0;;-1;1;7
A2YKFDGF4WVI1O;;2JV21O3W5XH03321GDBYKPLTI9QBHD;1352253950;;Firefox-16;United States;98.235.170.87;18;130;44;0;;1;1;106
AXOR2N1EAFVYF;;2JV21O3W5XH03321GDBYKPLTI9QBHD;1352253950;;Chrome-22;United States;24.15.223.10;20;327;120;0;;-1;1;38
A38OOGMA0M6KFC;;2JV21O3W5XH03321GDBYKPLTI9QBHD;1352253951;;Chrome-22;United States;76.102.91.208;1;124;120;0;;1;1;10
A3E0AY1XXP8IBQ;;2JV21O3W5XH03321GDBYKPLTI9QBHD;1352253951;;Firefox-16;United States;98.206.76.203;9;405;500;0;;-1;1;24
A2AB9WEOEPG7WR;;2JV21O3W5XH03321GDBYKPLTI9QBHD;1352253951;;Chrome-22;United States;68.199.87.165;4;221;150;0;;1;1;17
A1P5N4F97A45O1;;2JV21O3W5XH03321GDBYKPLTI9QBHD;1352253951;;Safari-6;United States;68.8.120.57;15;121;75;0;;-1;1;80
A15VZBRE9J8PS5;;2JV21O3W5XH03321GDBYKPLTI9QBHD;1352253951;;Firefox-16;United States;69.12.207.61;3;331;386;0;;0;1;25
A1D5T2IUI9TZNB;;2JV21O3W5XH03321GDBYKPLTI9QBHD;1352253952;;Firefox-16;United States;67.168.197.62;4;282;175;0;;0;1;9
A1F14BB4PV053A;;2JV21O3W5XH03321GDBYKPLTI9QBHD;1352253952;;Firefox-14;United States;76.181.205.211;13;149;402;0;;0;1;36
A31A74EUH1VI3G;;2JV21O3W5XH03321GDBYKPLTI9QBHD;1352253952;;Chrome-22;United States;98.16.170.225;8;488;350;0;;0;1;42
A3J5KZUQO0EN8N;;2JV21O3W5XH03321GDBYKPLTI9QBHD;1352253952;;Chrome-22;India;115.243.221.244;3;246;190;0;;0;1;11
A23JZKX95M40CY;;2JV21O3W5XH03321GDBYKPLTI9QBHD;1352253953;;Chrome-22;United States;98.154.17.0;9;130;86;0;;0;1;23
A3IL7ZPRL8SU05;;2JV21O3W5XH03321GDBYKPLTI9QBHD;1352253953;;Safari-6;United States;184.1.25.30;20;393;340;0;;-1;1;152
A1SFZ9BHP4WSAQ;;2JV21O3W5XH03321GDBYKPLTI9QBHD;1352253953;;Firefox-16;United States;50.55.177.153;8;175;180;0;;0;1;54
A2SYRFPPV9WDEG;;2JV21O3W5XH03321GDBYKPLTI9QBHD;1352253953;;Firefox-19;United States;66.75.77.46;9;169;500;0;;-1;1;11
A1FRRZ7VEVQ2Y9;;2JV21O3W5XH03321GDBYKPLTI9QBHD;1352253954;;Chrome-22;United States;128.111.173.2;9;155;150;0;;-1;1;36
A6AE4JPL2X6ZH;;2JV21O3W5XH03321GDBYKPLTI9QBHD;1352253954;;Firefox-16;United States;108.230.236.114;6;345;115;0;;-1;1;12
A22SZHZTF72TRM;;2JV21O3W5XH03321GDBYKPLTI9QBHD;1352253954;;Chrome-22;United States;209.23.243.42;37;59;40;54;;-1;2;289
A309BLCQJHQULO;;2JV21O3W5XH03321GDBYKPLTI9QBHD;1352253955;;Chrome-22;United States;97.103.144.202;21;310;200;0;;0;1;147
A140WD05T13AVN;;2JV21O3W5XH03321GDBYKPLTI9QBHD;1352253955;;Chrome-22;United States;67.140.76.21;6;223;100;0;;0;1;25
AXOR2N1EAFVYF;;2JV21O3W5XH03321GDBYKPLTI9QBHD;1352253955;;Chrome-22;United States;24.15.223.10;21;84;7;0;;-1;1;38
A1P5N4F97A45O1;;2JV21O3W5XH03321GDBYKPLTI9QBHD;1352253955;;Safari-6;United States;68.8.120.57;16;471;400;0;;-1;1;89
A2V1KDMAJ663EU;;2JV21O3W5XH03321GDBYKPLTI9QBHD;1352253955;;Chrome-22;United States;68.84.62.127;6;158;125;0;;1;1;33
A2YKFDGF4WVI1O;;2JV21O3W5XH03321GDBYKPLTI9QBHD;1352253956;;Firefox-16;United States;98.235.170.87;19;69;33;0;;1;1;107
A1D5T2IUI9TZNB;;2JV21O3W5XH03321GDBYKPLTI9QBHD;1352253956;;Firefox-16;United States;67.168.197.62;5;495;300;0;;0;1;12
A3E0AY1XXP8IBQ;;2JV21O3W5XH03321GDBYKPLTI9QBHD;1352253956;;Firefox-16;United States;98.206.76.203;10;133;50;0;;-1;1;24
A31A74EUH1VI3G;;2JV21O3W5XH03321GDBYKPLTI9QBHD;1352253956;;Chrome-22;United States;98.16.170.225;9;81;20;0;;0;1;42
A39RBYX03I6A51;;2JV21O3W5XH03321GDBYKPLTI9QBHD;1352253956;;Chrome-8;India;180.215.8.191;8;13;789;0;;1;1;19
A2AB9WEOEPG7WR;;2JV21O3W5XH03321GDBYKPLTI9QBHD;1352253956;;Chrome-22;United States;68.199.87.165;5;463;175;0;;1;1;17
A23JZKX95M40CY;;2JV21O3W5XH03321GDBYKPLTI9QBHD;1352253957;;Chrome-22;United States;98.154.17.0;10;42;32;0;;0;1;30
AXPFY62AF6SMP;;2JV21O3W5XH03321GDBYKPLTI9QBHD;1352253957;;Firefox-16;United States;70.114.163.35;5;349;502;0;;-1;1;29
A2V6SYSAA0PML1;;2JV21O3W5XH03321GDBYKPLTI9QBHD;1352253957;;Chrome-22;United States;107.15.18.40;1;354;85;0;;0;1;0
A2QF8NUVGZY90J;;2JV21O3W5XH03321GDBYKPLTI9QBHD;1352253958;;Firefox-16;United States;68.96.97.86;2;360;300;0;;-1;1;16
A1F14BB4PV053A;;2JV21O3W5XH03321GDBYKPLTI9QBHD;1352253958;;Firefox-14;United States;76.181.205.211;14;239;502;0;;0;1;37
A38OOGMA0M6KFC;;2JV21O3W5XH03321GDBYKPLTI9QBHD;1352253958;;Chrome-22;United States;76.102.91.208;2;278;210;0;;1;1;17
A2SYRFPPV9WDEG;;2JV21O3W5XH03321GDBYKPLTI9QBHD;1352253958;;Firefox-19;United States;66.75.77.46;10;129;100;0;;-1;1;19
A1SFZ9BHP4WSAQ;;2JV21O3W5XH03321GDBYKPLTI9QBHD;1352253958;;Firefox-16;United States;50.55.177.153;9;366;500;0;;0;1;61
A17AMTRIYI2Z2D;;2JV21O3W5XH03321GDBYKPLTI9QBHD;1352253959;;Firefox-16;United States;184.155.19.25;1;349;75;0;;0;1;0
A22SZHZTF72TRM;;2JV21O3W5XH03321GDBYKPLTI9QBHD;1352253959;;Chrome-22;United States;209.23.243.42;38;437;340;366;;-1;2;299
A1FRRZ7VEVQ2Y9;;2JV21O3W5XH03321GDBYKPLTI9QBHD;1352253959;;Chrome-22;United States;128.111.173.2;10;80;32;0;;-1;1;36
AXOR2N1EAFVYF;;2JV21O3W5XH03321GDBYKPLTI9QBHD;1352253959;;Chrome-22;United States;24.15.223.10;22;119;75;0;;-1;1;42
A15VZBRE9J8PS5;;2JV21O3W5XH03321GDBYKPLTI9QBHD;1352253959;;Firefox-16;United States;69.12.207.61;4;212;265;0;;0;1;33
A3IL7ZPRL8SU05;;2JV21O3W5XH03321GDBYKPLTI9QBHD;1352253959;;Safari-6;United States;184.1.25.30;21;149;135;0;;-1;1;162
A1P5N4F97A45O1;;2JV21O3W5XH03321GDBYKPLTI9QBHD;1352253960;;Safari-6;United States;68.8.120.57;17;40;50;0;;-1;1;97
A309BLCQJHQULO;;2JV21O3W5XH03321GDBYKPLTI9QBHD;1352253960;;Chrome-22;United States;97.103.144.202;22;362;300;0;;0;1;156
A2V1KDMAJ663EU;;2JV21O3W5XH03321GDBYKPLTI9QBHD;1352253960;;Chrome-22;United States;68.84.62.127;7;154;100;0;;1;1;37
A3E0AY1XXP8IBQ;;2JV21O3W5XH03321GDBYKPLTI9QBHD;1352253960;;Firefox-16;United States;98.206.76.203;11;292;400;0;;-1;1;30
A1D5T2IUI9TZNB;;2JV21O3W5XH03321GDBYKPLTI9QBHD;1352253961;;Firefox-16;United States;67.168.197.62;6;162;75;0;;0;1;13
A23JZKX95M40CY;;2JV21O3W5XH03321GDBYKPLTI9QBHD;1352253961;;Chrome-22;United States;98.154.17.0;11;233;145;0;;0;1;34
A2AB9WEOEPG7WR;;2JV21O3W5XH03321GDBYKPLTI9QBHD;1352253961;;Chrome-22;United States;68.199.87.165;6;46;20;0;;1;1;17
A1Q8F185LEGWP9;;2JV21O3W5XH03321GDBYKPLTI9QBHD;1352253961;;Firefox-16;United States;74.235.191.63;2;145;125;0;;0;1;16
AXOR2N1EAFVYF;;2JV21O3W5XH03321GDBYKPLTI9QBHD;1352253962;;Chrome-22;United States;24.15.223.10;23;261;75;0;;-1;1;42
A3J5KZUQO0EN8N;;2JV21O3W5XH03321GDBYKPLTI9QBHD;1352253962;;Chrome-22;India;115.243.221.244;4;82;110;0;;0;1;18
A31A74EUH1VI3G;;2JV21O3W5XH03321GDBYKPLTI9QBHD;1352253962;;Chrome-22;United States;98.16.170.225;10;448;395;0;;0;1;51
A39RBYX03I6A51;;2JV21O3W5XH03321GDBYKPLTI9QBHD;1352253963;;Chrome-8;India;180.215.8.191;9;173;556;0;;1;1;19
A1F14BB4PV053A;;2JV21O3W5XH03321GDBYKPLTI9QBHD;1352253963;;Firefox-14;United States;76.181.205.211;15;412;666;0;;0;1;41
AXPFY62AF6SMP;;2JV21O3W5XH03321GDBYKPLTI9QBHD;1352253963;;Firefox-16;United States;70.114.163.35;6;163;302;0;;-1;1;31
A140WD05T13AVN;;2JV21O3W5XH03321GDBYKPLTI9QBHD;1352253963;;Chrome-22;United States;67.140.76.21;7;411;85;0;;0;1;25
A1P5N4F97A45O1;;2JV21O3W5XH03321GDBYKPLTI9QBHD;1352253963;;Safari-6;United States;68.8.120.57;18;362;100;0;;-1;1;97
A2YKFDGF4WVI1O;;2JV21O3W5XH03321GDBYKPLTI9QBHD;1352253964;;Firefox-16;United States;98.235.170.87;20;386;365;0;;1;1;117
A2SYRFPPV9WDEG;;2JV21O3W5XH03321GDBYKPLTI9QBHD;1352253964;;Firefox-19;United States;66.75.77.46;11;242;300;0;;-1;1;27
A1FRRZ7VEVQ2Y9;;2JV21O3W5XH03321GDBYKPLTI9QBHD;1352253964;;Chrome-22;United States;128.111.173.2;11;427;400;0;;-1;1;46
A22SZHZTF72TRM;;2JV21O3W5XH03321GDBYKPLTI9QBHD;1352253964;;Chrome-22;United States;209.23.243.42;39;425;380;356;;-1;2;309
A2V6SYSAA0PML1;;2JV21O3W5XH03321GDBYKPLTI9QBHD;1352253964;;Chrome-22;United States;107.15.18.40;2;104;99;0;;0;1;10
A3IL7ZPRL8SU05;;2JV21O3W5XH03321GDBYKPLTI9QBHD;1352253965;;Safari-6;United States;184.1.25.30;22;142;120;0;;-1;1;171
A1D5T2IUI9TZNB;;2JV21O3W5XH03321GDBYKPLTI9QBHD;1352253965;;Firefox-16;United States;67.168.197.62;7;297;110;0;;0;1;13
A1SFZ9BHP4WSAQ;;2JV21O3W5XH03321GDBYKPLTI9QBHD;1352253965;;Firefox-16;United States;50.55.177.153;10;372;300;0;;0;1;69
A3E0AY1XXP8IBQ;;2JV21O3W5XH03321GDBYKPLTI9QBHD;1352253965;;Firefox-16;United States;98.206.76.203;12;314;400;0;;-1;1;38
A309BLCQJHQULO;;2JV21O3W5XH03321GDBYKPLTI9QBHD;1352253965;;Chrome-22;United States;97.103.144.202;23;240;200;0;;0;1;165
A2AB9WEOEPG7WR;;2JV21O3W5XH03321GDBYKPLTI9QBHD;1352253966;;Chrome-22;United States;68.199.87.165;7;248;100;0;;1;1;17
A2V1KDMAJ663EU;;2JV21O3W5XH03321GDBYKPLTI9QBHD;1352253966;;Chrome-22;United States;68.84.62.127;8;128;90;0;;1;1;43
AXOR2N1EAFVYF;;2JV21O3W5XH03321GDBYKPLTI9QBHD;1352253966;;Chrome-22;United States;24.15.223.10;24;416;1000;0;;-1;1;42
A2QF8NUVGZY90J;;2JV21O3W5XH03321GDBYKPLTI9QBHD;1352253966;;Firefox-16;United States;68.96.97.86;3;163;190;0;;-1;1;25
A15VZBRE9J8PS5;;2JV21O3W5XH03321GDBYKPLTI9QBHD;1352253967;;Firefox-16;United States;69.12.207.61;5;361;399;0;;0;1;43
A1Q8F185LEGWP9;;2JV21O3W5XH03321GDBYKPLTI9QBHD;1352253968;;Firefox-16;United States;74.235.191.63;3;313;200;0;;0;1;20
A2SYRFPPV9WDEG;;2JV21O3W5XH03321GDBYKPLTI9QBHD;1352253968;;Firefox-19;United States;66.75.77.46;12;88;50;0;;-1;1;29
A1F14BB4PV053A;;2JV21O3W5XH03321GDBYKPLTI9QBHD;1352253968;;Firefox-14;United States;76.181.205.211;16;154;222;0;;0;1;47
A140WD05T13AVN;;2JV21O3W5XH03321GDBYKPLTI9QBHD;1352253968;;Chrome-22;United States;67.140.76.21;8;452;300;0;;0;1;30
A31A74EUH1VI3G;;2JV21O3W5XH03321GDBYKPLTI9QBHD;1352253968;;Chrome-22;United States;98.16.170.225;11;290;395;0;;0;1;58
A1P5N4F97A45O1;;2JV21O3W5XH03321GDBYKPLTI9QBHD;1352253968;;Safari-6;United States;68.8.120.57;19;276;200;0;;-1;1;103
A38OOGMA0M6KFC;;2JV21O3W5XH03321GDBYKPLTI9QBHD;1352253969;;Chrome-22;United States;76.102.91.208;3;283;290;0;;1;1;27
AXPFY62AF6SMP;;2JV21O3W5XH03321GDBYKPLTI9QBHD;1352253969;;Firefox-16;United States;70.114.163.35;7;178;198;0;;-1;1;41
A1D5T2IUI9TZNB;;2JV21O3W5XH03321GDBYKPLTI9QBHD;1352253969;;Firefox-16;United States;67.168.197.62;8;384;200;0;;0;1;15
A1FRRZ7VEVQ2Y9;;2JV21O3W5XH03321GDBYKPLTI9QBHD;1352253969;;Chrome-22;United States;128.111.173.2;12;54;25;0;;-1;1;47
A2V6SYSAA0PML1;;2JV21O3W5XH03321GDBYKPLTI9QBHD;1352253969;;Chrome-22;United States;107.15.18.40;3;410;125;0;;0;1;10
A3E0AY1XXP8IBQ;;2JV21O3W5XH03321GDBYKPLTI9QBHD;1352253970;;Firefox-16;United States;98.206.76.203;13;73;50;0;;-1;1;43
A39RBYX03I6A51;;2JV21O3W5XH03321GDBYKPLTI9QBHD;1352253970;;Chrome-8;India;180.215.8.191;10;500;450;0;;1;1;29
A17AMTRIYI2Z2D;;2JV21O3W5XH03321GDBYKPLTI9QBHD;1352253970;;Firefox-16;United States;184.155.19.25;2;487;175;0;;0;1;0
A309BLCQJHQULO;;2JV21O3W5XH03321GDBYKPLTI9QBHD;1352253970;;Chrome-22;United States;97.103.144.202;24;9;18;0;;0;1;166
A2YKFDGF4WVI1O;;2JV21O3W5XH03321GDBYKPLTI9QBHD;1352253970;;Firefox-16;United States;98.235.170.87;21;391;555;0;;1;1;123
AXOR2N1EAFVYF;;2JV21O3W5XH03321GDBYKPLTI9QBHD;1352253971;;Chrome-22;United States;24.15.223.10;25;219;100;0;;-1;1;43
A22SZHZTF72TRM;;2JV21O3W5XH03321GDBYKPLTI9QBHD;1352253971;;Chrome-22;United States;209.23.243.42;40;345;290;291;;-1;2;319
A3J5KZUQO0EN8N;;2JV21O3W5XH03321GDBYKPLTI9QBHD;1352253971;;Chrome-22;India;115.243.221.244;5;172;100;0;;0;1;21
A2V1KDMAJ663EU;;2JV21O3W5XH03321GDBYKPLTI9QBHD;1352253972;;Chrome-22;United States;68.84.62.127;9;27;25;0;;1;1;53
A3IL7ZPRL8SU05;;2JV21O3W5XH03321GDBYKPLTI9QBHD;1352253972;;Safari-6;United States;184.1.25.30;23;480;480;0;;-1;1;181
A2AB9WEOEPG7WR;;2JV21O3W5XH03321GDBYKPLTI9QBHD;1352253972;;Chrome-22;United States;68.199.87.165;8;255;105;0;;1;1;17
A2SYRFPPV9WDEG;;2JV21O3W5XH03321GDBYKPLTI9QBHD;1352253973;;Firefox-19;United States;66.75.77.46;13;172;150;0;;-1;1;38
A1F14BB4PV053A;;2JV21O3W5XH03321GDBYKPLTI9QBHD;1352253973;;Firefox-14;United States;76.181.205.211;17;187;333;0;;0;1;49
A325JVOWCVG3MA;;2JV21O3W5XH03321GDBYKPLTI9QBHD;1352253973;;Safari-6;United States;174.252.112.174;1;228;0;0;;-1;1;0
A1D5T2IUI9TZNB;;2JV21O3W5XH03321GDBYKPLTI9QBHD;1352253973;;Firefox-16;United States;67.168.197.62;9;90;75;0;;0;1;24
A1P5N4F97A45O1;;2JV21O3W5XH03321GDBYKPLTI9QBHD;1352253973;;Safari-6;United States;68.8.120.57;20;236;100;0;;-1;1;103
A1Q8F185LEGWP9;;2JV21O3W5XH03321GDBYKPLTI9QBHD;1352253973;;Firefox-16;United States;74.235.191.63;4;18;15;0;;0;1;29
A2QF8NUVGZY90J;;2JV21O3W5XH03321GDBYKPLTI9QBHD;1352253974;;Firefox-16;United States;68.96.97.86;4;310;200;0;;-1;1;29
A15VZBRE9J8PS5;;2JV21O3W5XH03321GDBYKPLTI9QBHD;1352253974;;Firefox-16;United States;69.12.207.61;6;157;122;0;;0;1;51
A140WD05T13AVN;;2JV21O3W5XH03321GDBYKPLTI9QBHD;1352253974;;Chrome-22;United States;67.140.76.21;9;222;150;0;;0;1;35
A38OOGMA0M6KFC;;2JV21O3W5XH03321GDBYKPLTI9QBHD;1352253975;;Chrome-22;United States;76.102.91.208;4;495;350;0;;1;1;33
A31A74EUH1VI3G;;2JV21O3W5XH03321GDBYKPLTI9QBHD;1352253975;;Chrome-22;United States;98.16.170.225;12;332;290;0;;0;1;67
A1FRRZ7VEVQ2Y9;;2JV21O3W5XH03321GDBYKPLTI9QBHD;1352253975;;Chrome-22;United States;128.111.173.2;13;472;900;0;;-1;1;49
A309BLCQJHQULO;;2JV21O3W5XH03321GDBYKPLTI9QBHD;1352253975;;Chrome-22;United States;97.103.144.202;25;41;45;0;;0;1;176
AXPFY62AF6SMP;;2JV21O3W5XH03321GDBYKPLTI9QBHD;1352253975;;Firefox-16;United States;70.114.163.35;8;499;358;0;;-1;1;47
A3E0AY1XXP8IBQ;;2JV21O3W5XH03321GDBYKPLTI9QBHD;1352253976;;Firefox-16;United States;98.206.76.203;14;276;400;0;;-1;1;48
AXOR2N1EAFVYF;;2JV21O3W5XH03321GDBYKPLTI9QBHD;1352253976;;Chrome-22;United States;24.15.223.10;26;241;90;0;;-1;1;43
A2YKFDGF4WVI1O;;2JV21O3W5XH03321GDBYKPLTI9QBHD;1352253976;;Firefox-16;United States;98.235.170.87;22;428;444;0;;1;1;133
A1SFZ9BHP4WSAQ;;2JV21O3W5XH03321GDBYKPLTI9QBHD;1352253976;;Firefox-16;United States;50.55.177.153;11;398;350;0;;0;1;78
A2V6SYSAA0PML1;;2JV21O3W5XH03321GDBYKPLTI9QBHD;1352253976;;Chrome-22;United States;107.15.18.40;4;147;105;0;;0;1;16
A22SZHZTF72TRM;;2JV21O3W5XH03321GDBYKPLTI9QBHD;1352253977;;Chrome-22;United States;209.23.243.42;41;198;180;171;;-1;2;329
A3IL7ZPRL8SU05;;2JV21O3W5XH03321GDBYKPLTI9QBHD;1352253977;;Safari-6;United States;184.1.25.30;24;222;300;0;;-1;1;188
A2AB9WEOEPG7WR;;2JV21O3W5XH03321GDBYKPLTI9QBHD;1352253977;;Chrome-22;United States;68.199.87.165;9;222;60;0;;1;1;17
A2SYRFPPV9WDEG;;2JV21O3W5XH03321GDBYKPLTI9QBHD;1352253977;;Firefox-19;United States;66.75.77.46;14;193;250;0;;-1;1;45
A1D5T2IUI9TZNB;;2JV21O3W5XH03321GDBYKPLTI9QBHD;1352253977;;Firefox-16;United States;67.168.197.62;10;257;95;0;;0;1;24
A39RBYX03I6A51;;2JV21O3W5XH03321GDBYKPLTI9QBHD;1352253978;;Chrome-8;India;180.215.8.191;11;205;555;0;;1;1;29
A1P5N4F97A45O1;;2JV21O3W5XH03321GDBYKPLTI9QBHD;1352253978;;Safari-6;United States;68.8.120.57;21;379;300;0;;-1;1;111
A2QF8NUVGZY90J;;2JV21O3W5XH03321GDBYKPLTI9QBHD;1352253978;;Firefox-16;United States;68.96.97.86;5;405;400;0;;-1;1;39
A1F14BB4PV053A;;2JV21O3W5XH03321GDBYKPLTI9QBHD;1352253979;;Firefox-14;United States;76.181.205.211;18;21;50;0;;0;1;49
A1Q8F185LEGWP9;;2JV21O3W5XH03321GDBYKPLTI9QBHD;1352253980;;Firefox-16;United States;74.235.191.63;5;107;100;0;;0;1;39
A31A74EUH1VI3G;;2JV21O3W5XH03321GDBYKPLTI9QBHD;1352253980;;Chrome-22;United States;98.16.170.225;13;78;15;0;;0;1;67
A3E0AY1XXP8IBQ;;2JV21O3W5XH03321GDBYKPLTI9QBHD;1352253980;;Firefox-16;United States;98.206.76.203;15;288;400;0;;-1;1;54
A1FRRZ7VEVQ2Y9;;2JV21O3W5XH03321GDBYKPLTI9QBHD;1352253980;;Chrome-22;United States;128.111.173.2;14;193;250;0;;-1;1;56
A3J5KZUQO0EN8N;;2JV21O3W5XH03321GDBYKPLTI9QBHD;1352253980;;Chrome-22;India;115.243.221.244;6;474;300;0;;0;1;25
A38OOGMA0M6KFC;;2JV21O3W5XH03321GDBYKPLTI9QBHD;1352253981;;Chrome-22;United States;76.102.91.208;5;366;200;0;;1;1;35
AXPFY62AF6SMP;;2JV21O3W5XH03321GDBYKPLTI9QBHD;1352253981;;Firefox-16;United States;70.114.163.35;9;221;299;0;;-1;1;54
A140WD05T13AVN;;2JV21O3W5XH03321GDBYKPLTI9QBHD;1352253981;;Chrome-22;United States;67.140.76.21;10;88;45;0;;0;1;36
A309BLCQJHQULO;;2JV21O3W5XH03321GDBYKPLTI9QBHD;1352253981;;Chrome-22;United States;97.103.144.202;26;442;400;0;;0;1;186
A2V1KDMAJ663EU;;2JV21O3W5XH03321GDBYKPLTI9QBHD;1352253981;;Chrome-22;United States;68.84.62.127;10;189;120;0;;1;1;57
AXOR2N1EAFVYF;;2JV21O3W5XH03321GDBYKPLTI9QBHD;1352253981;;Chrome-22;United States;24.15.223.10;27;482;175;0;;-1;1;43
A3IL7ZPRL8SU05;;2JV21O3W5XH03321GDBYKPLTI9QBHD;1352253981;;Safari-6;United States;184.1.25.30;25;331;340;0;;-1;1;198
A15VZBRE9J8PS5;;2JV21O3W5XH03321GDBYKPLTI9QBHD;1352253982;;Firefox-16;United States;69.12.207.61;7;256;244;0;;0;1;61
A2YKFDGF4WVI1O;;2JV21O3W5XH03321GDBYKPLTI9QBHD;1352253982;;Firefox-16;United States;98.235.170.87;23;231;265;0;;1;1;142
A1P5N4F97A45O1;;2JV21O3W5XH03321GDBYKPLTI9QBHD;1352253982;;Safari-6;United States;68.8.120.57;22;36;20;0;;-1;1;113
A17AMTRIYI2Z2D;;2JV21O3W5XH03321GDBYKPLTI9QBHD;1352253982;;Firefox-16;United States;184.155.19.25;3;252;60;0;;0;1;0
A22SZHZTF72TRM;;2JV21O3W5XH03321GDBYKPLTI9QBHD;1352253982;;Chrome-22;United States;209.23.243.42;42;328;270;278;;-1;2;339
A2AB9WEOEPG7WR;;2JV21O3W5XH03321GDBYKPLTI9QBHD;1352253982;;Chrome-22;United States;68.199.87.165;10;55;25;0;;1;1;18
A325JVOWCVG3MA;;2JV21O3W5XH03321GDBYKPLTI9QBHD;1352253983;;Safari-6;United States;174.252.112.174;2;326;600;0;;-1;1;2
A2SYRFPPV9WDEG;;2JV21O3W5XH03321GDBYKPLTI9QBHD;1352253983;;Firefox-19;United States;66.75.77.46;15;254;500;0;;-1;1;46
A1D5T2IUI9TZNB;;2JV21O3W5XH03321GDBYKPLTI9QBHD;1352253983;;Firefox-16;United States;67.168.197.62;11;481;220;0;;0;1;25
A1SFZ9BHP4WSAQ;;2JV21O3W5XH03321GDBYKPLTI9QBHD;1352253984;;Firefox-16;United States;50.55.177.153;12;175;76;0;;0;1;78
A3E0AY1XXP8IBQ;;2JV21O3W5XH03321GDBYKPLTI9QBHD;1352253984;;Firefox-16;United States;98.206.76.203;16;253;400;0;;-1;1;58
A2V6SYSAA0PML1;;2JV21O3W5XH03321GDBYKPLTI9QBHD;1352253984;;Chrome-22;United States;107.15.18.40;5;144;115;0;;0;1;24
A31A74EUH1VI3G;;2JV21O3W5XH03321GDBYKPLTI9QBHD;1352253985;;Chrome-22;United States;98.16.170.225;14;183;30;0;;0;1;67
A2QF8NUVGZY90J;;2JV21O3W5XH03321GDBYKPLTI9QBHD;1352253985;;Firefox-16;United States;68.96.97.86;6;259;350;0;;-1;1;46
A1Q8F185LEGWP9;;2JV21O3W5XH03321GDBYKPLTI9QBHD;1352253985;;Firefox-16;United States;74.235.191.63;6;410;300;0;;0;1;46
AXOR2N1EAFVYF;;2JV21O3W5XH03321GDBYKPLTI9QBHD;1352253985;;Chrome-22;United States;24.15.223.10;28;332;300;0;;-1;1;53
A3IL7ZPRL8SU05;;2JV21O3W5XH03321GDBYKPLTI9QBHD;1352253986;;Safari-6;United States;184.1.25.30;26;68;90;0;;-1;1;205
A1P5N4F97A45O1;;2JV21O3W5XH03321GDBYKPLTI9QBHD;1352253986;;Safari-6;United States;68.8.120.57;23;318;300;0;;-1;1;123
A309BLCQJHQULO;;2JV21O3W5XH03321GDBYKPLTI9QBHD;1352253986;;Chrome-22;United States;97.103.144.202;27;96;100;0;;0;1;196
A1F14BB4PV053A;;2JV21O3W5XH03321GDBYKPLTI9QBHD;1352253986;;Firefox-14;United States;76.181.205.211;19;91;225;0;;0;1;49
AXPFY62AF6SMP;;2JV21O3W5XH03321GDBYKPLTI9QBHD;1352253986;;Firefox-16;United States;70.114.163.35;10;63;52;0;;-1;1;63
A2AB9WEOEPG7WR;;2JV21O3W5XH03321GDBYKPLTI9QBHD;1352253987;;Chrome-22;United States;68.199.87.165;11;229;70;0;;1;1;18
A38OOGMA0M6KFC;;2JV21O3W5XH03321GDBYKPLTI9QBHD;1352253987;;Chrome-22;United States;76.102.91.208;6;374;250;0;;1;1;40
A2V1KDMAJ663EU;;2JV21O3W5XH03321GDBYKPLTI9QBHD;1352253987;;Chrome-22;United States;68.84.62.127;11;325;250;0;;1;1;64
A22SZHZTF72TRM;;2JV21O3W5XH03321GDBYKPLTI9QBHD;1352253987;;Chrome-22;United States;209.23.243.42;43;169;160;147;;-1;2;349
A2YKFDGF4WVI1O;;2JV21O3W5XH03321GDBYKPLTI9QBHD;1352253988;;Firefox-16;United States;98.235.170.87;24;396;455;0;;1;1;151
A23JZKX95M40CY;;2JV21O3W5XH03321GDBYKPLTI9QBHD;1352253988;;Chrome-22;United States;98.154.17.0;12;250;76;0;;0;1;34
A140WD05T13AVN;;2JV21O3W5XH03321GDBYKPLTI9QBHD;1352253988;;Chrome-22;United States;67.140.76.21;11;370;300;0;;0;1;44
A1D5T2IUI9TZNB;;2JV21O3W5XH03321GDBYKPLTI9QBHD;1352253988;;Firefox-16;United States;67.168.197.62;12;267;150;0;;0;1;27
A3E0AY1XXP8IBQ;;2JV21O3W5XH03321GDBYKPLTI9QBHD;1352253989;;Firefox-16;United States;98.206.76.203;17;163;300;0;;-1;1;60
AXOR2N1EAFVYF;;2JV21O3W5XH03321GDBYKPLTI9QBHD;1352253989;;Chrome-22;United States;24.15.223.10;29;196;200;0;;-1;1;63
A1P5N4F97A45O1;;2JV21O3W5XH03321GDBYKPLTI9QBHD;1352253989;;Safari-6;United States;68.8.120.57;24;133;200;0;;-1;1;128
A2V6SYSAA0PML1;;2JV21O3W5XH03321GDBYKPLTI9QBHD;1352253989;;Chrome-22;United States;107.15.18.40;6;402;130;0;;0;1;24
A3J5KZUQO0EN8N;;2JV21O3W5XH03321GDBYKPLTI9QBHD;1352253989;;Chrome-22;India;115.243.221.244;7;419;350;0;;0;1;34
A1SFZ9BHP4WSAQ;;2JV21O3W5XH03321GDBYKPLTI9QBHD;1352253989;;Firefox-16;United States;50.55.177.153;13;242;100;0;;0;1;78
A325JVOWCVG3MA;;2JV21O3W5XH03321GDBYKPLTI9QBHD;1352253990;;Safari-6;United States;174.252.112.174;3;215;500;0;;-1;1;2
A17AMTRIYI2Z2D;;2JV21O3W5XH03321GDBYKPLTI9QBHD;1352253990;;Firefox-16;United States;184.155.19.25;4;303;80;0;;0;1;0
A2QF8NUVGZY90J;;2JV21O3W5XH03321GDBYKPLTI9QBHD;1352253990;;Firefox-16;United States;68.96.97.86;7;405;325;0;;-1;1;54
A1F14BB4PV053A;;2JV21O3W5XH03321GDBYKPLTI9QBHD;1352253991;;Firefox-14;United States;76.181.205.211;20;168;175;0;;0;1;59
A3TVDFJ22T1FFN;;2JV21O3W5XH03321GDBYKPLTI9QBHD;1352253991;;Chrome-22;India;116.202.117.215;1;273;0;0;;1;1;0
A309BLCQJHQULO;;2JV21O3W5XH03321GDBYKPLTI9QBHD;1352253992;;Chrome-22;United States;97.103.144.202;28;276;150;0;;0;1;198
A3IL7ZPRL8SU05;;2JV21O3W5XH03321GDBYKPLTI9QBHD;1352253992;;Safari-6;United States;184.1.25.30;27;98;86;0;;-1;1;214
A31A74EUH1VI3G;;2JV21O3W5XH03321GDBYKPLTI9QBHD;1352253992;;Chrome-22;United States;98.16.170.225;15;474;250;0;;0;1;69
A2AB9WEOEPG7WR;;2JV21O3W5XH03321GDBYKPLTI9QBHD;1352253992;;Chrome-22;United States;68.199.87.165;12;284;98;0;;1;1;18
A1Q8F185LEGWP9;;2JV21O3W5XH03321GDBYKPLTI9QBHD;1352253992;;Firefox-16;United States;74.235.191.63;7;378;350;0;;0;1;56
A23JZKX95M40CY;;2JV21O3W5XH03321GDBYKPLTI9QBHD;1352253992;;Chrome-22;United States;98.154.17.0;13;218;123;0;;0;1;36
AXOR2N1EAFVYF;;2JV21O3W5XH03321GDBYKPLTI9QBHD;1352253992;;Chrome-22;United States;24.15.223.10;30;386;300;0;;-1;1;71
A15VZBRE9J8PS5;;2JV21O3W5XH03321GDBYKPLTI9QBHD;1352253992;;Firefox-16;United States;69.12.207.61;8;480;468;0;;0;1;71
A39RBYX03I6A51;;2JV21O3W5XH03321GDBYKPLTI9QBHD;1352253992;;Chrome-8;India;180.215.8.191;12;58;667;0;;1;1;29
A2SYRFPPV9WDEG;;2JV21O3W5XH03321GDBYKPLTI9QBHD;1352253993;;Firefox-19;United States;66.75.77.46;16;164;400;0;;-1;1;46
A22SZHZTF72TRM;;2JV21O3W5XH03321GDBYKPLTI9QBHD;1352253993;;Chrome-22;United States;209.23.243.42;44;271;220;231;;-1;2;359
A1D5T2IUI9TZNB;;2JV21O3W5XH03321GDBYKPLTI9QBHD;1352253993;;Firefox-16;United States;67.168.197.62;13;49;20;0;;0;1;27
A2V1KDMAJ663EU;;2JV21O3W5XH03321GDBYKPLTI9QBHD;1352253993;;Chrome-22;United States;68.84.62.127;12;318;300;0;;1;1;74
A2YKFDGF4WVI1O;;2JV21O3W5XH03321GDBYKPLTI9QBHD;1352253993;;Firefox-16;United States;98.235.170.87;25;34;22;0;;1;1;155
A3E0AY1XXP8IBQ;;2JV21O3W5XH03321GDBYKPLTI9QBHD;1352253993;;Firefox-16;United States;98.206.76.203;18;455;500;0;;-1;1;70
A38OOGMA0M6KFC;;2JV21O3W5XH03321GDBYKPLTI9QBHD;1352253993;;Chrome-22;United States;76.102.91.208;7;215;120;0;;1;1;42
A1P5N4F97A45O1;;2JV21O3W5XH03321GDBYKPLTI9QBHD;1352253993;;Safari-6;United States;68.8.120.57;25;285;400;0;;-1;1;134
A140WD05T13AVN;;2JV21O3W5XH03321GDBYKPLTI9QBHD;1352253993;;Chrome-22;United States;67.140.76.21;12;149;200;0;;0;1;51
AXPFY62AF6SMP;;2JV21O3W5XH03321GDBYKPLTI9QBHD;1352253994;;Firefox-16;United States;70.114.163.35;11;475;535;0;;-1;1;72
A2V6SYSAA0PML1;;2JV21O3W5XH03321GDBYKPLTI9QBHD;1352253994;;Chrome-22;United States;107.15.18.40;7;369;125;0;;0;1;24
A2QF8NUVGZY90J;;2JV21O3W5XH03321GDBYKPLTI9QBHD;1352253995;;Firefox-16;United States;68.96.97.86;8;443;450;0;;-1;1;64
A17AMTRIYI2Z2D;;2JV21O3W5XH03321GDBYKPLTI9QBHD;1352253995;;Firefox-16;United States;184.155.19.25;5;84;35;0;;0;1;0
A309BLCQJHQULO;;2JV21O3W5XH03321GDBYKPLTI9QBHD;1352253996;;Chrome-22;United States;97.103.144.202;29;327;200;0;;0;1;201
A3IL7ZPRL8SU05;;2JV21O3W5XH03321GDBYKPLTI9QBHD;1352253996;;Safari-6;United States;184.1.25.30;28;300;240;0;;-1;1;222
A1F14BB4PV053A;;2JV21O3W5XH03321GDBYKPLTI9QBHD;1352253996;;Firefox-14;United States;76.181.205.211;21;455;855;0;;0;1;61
A1D5T2IUI9TZNB;;2JV21O3W5XH03321GDBYKPLTI9QBHD;1352253996;;Firefox-16;United States;67.168.197.62;14;417;150;0;;0;1;27
A23JZKX95M40CY;;2JV21O3W5XH03321GDBYKPLTI9QBHD;1352253996;;Chrome-22;United States;98.154.17.0;14;41;32;0;;0;1;44
A3E0AY1XXP8IBQ;;2JV21O3W5XH03321GDBYKPLTI9QBHD;1352253997;;Firefox-16;United States;98.206.76.203;19;336;500;0;;-1;1;75
A1SFZ9BHP4WSAQ;;2JV21O3W5XH03321GDBYKPLTI9QBHD;1352253997;;Firefox-16;United States;50.55.177.153;14;333;230;0;;0;1;84
AXOR2N1EAFVYF;;2JV21O3W5XH03321GDBYKPLTI9QBHD;1352253997;;Chrome-22;United States;24.15.223.10;31;15;30;15;;-1;2;72
A325JVOWCVG3MA;;2JV21O3W5XH03321GDBYKPLTI9QBHD;1352253997;;Safari-6;United States;174.252.112.174;4;123;1;0;;-1;1;2
A1P5N4F97A45O1;;2JV21O3W5XH03321GDBYKPLTI9QBHD;1352253998;;Safari-6;United States;68.8.120.57;26;492;599;0;;-1;1;142
A22SZHZTF72TRM;;2JV21O3W5XH03321GDBYKPLTI9QBHD;1352253998;;Chrome-22;United States;209.23.243.42;45;130;130;114;;-1;2;368
A1Q8F185LEGWP9;;2JV21O3W5XH03321GDBYKPLTI9QBHD;1352253998;;Firefox-16;United States;74.235.191.63;8;243;350;0;;0;1;62
A2SYRFPPV9WDEG;;2JV21O3W5XH03321GDBYKPLTI9QBHD;1352253998;;Firefox-19;United States;66.75.77.46;17;58;40;0;;-1;1;51
A31A74EUH1VI3G;;2JV21O3W5XH03321GDBYKPLTI9QBHD;1352253998;;Chrome-22;United States;98.16.170.225;16;45;15;0;;0;1;69
A2V1KDMAJ663EU;;2JV21O3W5XH03321GDBYKPLTI9QBHD;1352253998;;Chrome-22;United States;68.84.62.127;13;192;167;0;;1;1;83
A2AB9WEOEPG7WR;;2JV21O3W5XH03321GDBYKPLTI9QBHD;1352253999;;Chrome-22;United States;68.199.87.165;13;432;170;0;;1;1;18
A140WD05T13AVN;;2JV21O3W5XH03321GDBYKPLTI9QBHD;1352253999;;Chrome-22;United States;67.140.76.21;13;213;275;0;;0;1;59
A2V6SYSAA0PML1;;2JV21O3W5XH03321GDBYKPLTI9QBHD;1352253999;;Chrome-22;United States;107.15.18.40;8;471;140;0;;0;1;24
AXPFY62AF6SMP;;2JV21O3W5XH03321GDBYKPLTI9QBHD;1352253999;;Firefox-16;United States;70.114.163.35;12;468;670;0;;-1;1;78
A3J5KZUQO0EN8N;;2JV21O3W5XH03321GDBYKPLTI9QBHD;1352253999;;Chrome-22;India;115.243.221.244;8;216;250;0;;0;1;43
A15VZBRE9J8PS5;;2JV21O3W5XH03321GDBYKPLTI9QBHD;1352254000;;Firefox-16;United States;69.12.207.61;9;174;118;0;;0;1;76
A2YKFDGF4WVI1O;;2JV21O3W5XH03321GDBYKPLTI9QBHD;1352254000;;Firefox-16;United States;98.235.170.87;26;358;266;0;;1;1;162
A2QF8NUVGZY90J;;2JV21O3W5XH03321GDBYKPLTI9QBHD;1352254001;;Firefox-16;United States;68.96.97.86;9;188;150;0;;-1;1;72
A23JZKX95M40CY;;2JV21O3W5XH03321GDBYKPLTI9QBHD;1352254001;;Chrome-22;United States;98.154.17.0;15;102;65;0;;0;1;48
A1D5T2IUI9TZNB;;2JV21O3W5XH03321GDBYKPLTI9QBHD;1352254001;;Firefox-16;United States;67.168.197.62;15;150;75;0;;0;1;28
A3IL7ZPRL8SU05;;2JV21O3W5XH03321GDBYKPLTI9QBHD;1352254001;;Safari-6;United States;184.1.25.30;29;359;300;0;;-1;1;231
A1P5N4F97A45O1;;2JV21O3W5XH03321GDBYKPLTI9QBHD;1352254001;;Safari-6;United States;68.8.120.57;27;300;300;0;;-1;1;152
A309BLCQJHQULO;;2JV21O3W5XH03321GDBYKPLTI9QBHD;1352254001;;Chrome-22;United States;97.103.144.202;30;109;100;0;;0;1;211
A39RBYX03I6A51;;2JV21O3W5XH03321GDBYKPLTI9QBHD;1352254001;;Chrome-8;India;180.215.8.191;13;298;6667;0;;1;1;29
A3E0AY1XXP8IBQ;;2JV21O3W5XH03321GDBYKPLTI9QBHD;1352254001;;Firefox-16;United States;98.206.76.203;20;250;400;0;;-1;1;79
AXOR2N1EAFVYF;;2JV21O3W5XH03321GDBYKPLTI9QBHD;1352254002;;Chrome-22;United States;24.15.223.10;32;434;200;364;;-1;2;74
A1F14BB4PV053A;;2JV21O3W5XH03321GDBYKPLTI9QBHD;1352254002;;Firefox-14;United States;76.181.205.211;22;489;855;0;;0;1;64
A38OOGMA0M6KFC;;2JV21O3W5XH03321GDBYKPLTI9QBHD;1352254002;;Chrome-22;United States;76.102.91.208;8;220;100;0;;1;1;43
A325JVOWCVG3MA;;2JV21O3W5XH03321GDBYKPLTI9QBHD;1352254003;;Safari-6;United States;174.252.112.174;5;333;700;0;;-1;1;3
A22SZHZTF72TRM;;2JV21O3W5XH03321GDBYKPLTI9QBHD;1352254004;;Chrome-22;United States;209.23.243.42;46;16;15;16;;-1;2;378
A2SYRFPPV9WDEG;;2JV21O3W5XH03321GDBYKPLTI9QBHD;1352254004;;Firefox-19;United States;66.75.77.46;18;108;125;0;;-1;1;60
A31A74EUH1VI3G;;2JV21O3W5XH03321GDBYKPLTI9QBHD;1352254004;;Chrome-22;United States;98.16.170.225;17;117;56;0;;0;1;70
A1Q8F185LEGWP9;;2JV21O3W5XH03321GDBYKPLTI9QBHD;1352254004;;Firefox-16;United States;74.235.191.63;9;205;250;0;;0;1;70
A3TVDFJ22T1FFN;;2JV21O3W5XH03321GDBYKPLTI9QBHD;1352254004;;Chrome-22;India;116.202.117.215;2;164;80;0;;1;1;1
A2V6SYSAA0PML1;;2JV21O3W5XH03321GDBYKPLTI9QBHD;1352254005;;Chrome-22;United States;107.15.18.40;9;82;66;0;;0;1;32
A1P5N4F97A45O1;;2JV21O3W5XH03321GDBYKPLTI9QBHD;1352254005;;Safari-6;United States;68.8.120.57;28;325;499;0;;-1;1;156
A1D5T2IUI9TZNB;;2JV21O3W5XH03321GDBYKPLTI9QBHD;1352254005;;Firefox-16;United States;67.168.197.62;16;248;150;0;;0;1;31
AXPFY62AF6SMP;;2JV21O3W5XH03321GDBYKPLTI9QBHD;1352254005;;Firefox-16;United States;70.114.163.35;13;316;480;0;;-1;1;83
A140WD05T13AVN;;2JV21O3W5XH03321GDBYKPLTI9QBHD;1352254006;;Chrome-22;United States;67.140.76.21;14;351;475;0;;0;1;66
A2YKFDGF4WVI1O;;2JV21O3W5XH03321GDBYKPLTI9QBHD;1352254006;;Firefox-16;United States;98.235.170.87;27;71;43;0;;1;1;165
A3IL7ZPRL8SU05;;2JV21O3W5XH03321GDBYKPLTI9QBHD;1352254006;;Safari-6;United States;184.1.25.30;30;239;250;0;;-1;1;241
AXOR2N1EAFVYF;;2JV21O3W5XH03321GDBYKPLTI9QBHD;1352254006;;Chrome-22;United States;24.15.223.10;33;194;200;167;;-1;2;83
A309BLCQJHQULO;;2JV21O3W5XH03321GDBYKPLTI9QBHD;1352254006;;Chrome-22;United States;97.103.144.202;31;125;100;125;;0;2;219
A1F14BB4PV053A;;2JV21O3W5XH03321GDBYKPLTI9QBHD;1352254006;;Firefox-14;United States;76.181.205.211;23;483;855;0;;0;1;66
A2V1KDMAJ663EU;;2JV21O3W5XH03321GDBYKPLTI9QBHD;1352254006;;Chrome-22;United States;68.84.62.127;14;160;130;0;;1;1;91
A1SFZ9BHP4WSAQ;;2JV21O3W5XH03321GDBYKPLTI9QBHD;1352254006;;Firefox-16;United States;50.55.177.153;15;227;320;0;;0;1;90
A23JZKX95M40CY;;2JV21O3W5XH03321GDBYKPLTI9QBHD;1352254006;;Chrome-22;United States;98.154.17.0;16;317;158;0;;0;1;49
A3E0AY1XXP8IBQ;;2JV21O3W5XH03321GDBYKPLTI9QBHD;1352254006;;Firefox-16;United States;98.206.76.203;21;220;400;0;;-1;1;81
A17AMTRIYI2Z2D;;2JV21O3W5XH03321GDBYKPLTI9QBHD;1352254007;;Firefox-16;United States;184.155.19.25;6;122;55;0;;0;1;1
A39RBYX03I6A51;;2JV21O3W5XH03321GDBYKPLTI9QBHD;1352254007;;Chrome-8;India;180.215.8.191;14;284;567;0;;1;1;30
A15VZBRE9J8PS5;;2JV21O3W5XH03321GDBYKPLTI9QBHD;1352254007;;Firefox-16;United States;69.12.207.61;10;101;115;0;;0;1;85
A2QF8NUVGZY90J;;2JV21O3W5XH03321GDBYKPLTI9QBHD;1352254007;;Firefox-16;United States;68.96.97.86;10;340;260;0;;-1;1;79
A2AB9WEOEPG7WR;;2JV21O3W5XH03321GDBYKPLTI9QBHD;1352254008;;Chrome-22;United States;68.199.87.165;14;249;112;0;;1;1;19
A1P5N4F97A45O1;;2JV21O3W5XH03321GDBYKPLTI9QBHD;1352254008;;Safari-6;United States;68.8.120.57;29;378;200;0;;-1;1;158
A3J5KZUQO0EN8N;;2JV21O3W5XH03321GDBYKPLTI9QBHD;1352254008;;Chrome-22;India;115.243.221.244;9;274;200;0;;0;1;49
A31A74EUH1VI3G;;2JV21O3W5XH03321GDBYKPLTI9QBHD;1352254008;;Chrome-22;United States;98.16.170.225;18;336;200;0;;0;1;73
A22SZHZTF72TRM;;2JV21O3W5XH03321GDBYKPLTI9QBHD;1352254009;;Chrome-22;United States;209.23.243.42;47;373;360;314;;-1;2;387
A1Q8F185LEGWP9;;2JV21O3W5XH03321GDBYKPLTI9QBHD;1352254009;;Firefox-16;United States;74.235.191.63;10;345;350;0;;0;1;80
A38OOGMA0M6KFC;;2JV21O3W5XH03321GDBYKPLTI9QBHD;1352254009;;Chrome-22;United States;76.102.91.208;9;320;200;0;;1;1;47
A2V6SYSAA0PML1;;2JV21O3W5XH03321GDBYKPLTI9QBHD;1352254010;;Chrome-22;United States;107.15.18.40;10;193;80;0;;0;1;32
A2SYRFPPV9WDEG;;2JV21O3W5XH03321GDBYKPLTI9QBHD;1352254010;;Firefox-19;United States;66.75.77.46;19;117;175;0;;-1;1;65
AXOR2N1EAFVYF;;2JV21O3W5XH03321GDBYKPLTI9QBHD;1352254010;;Chrome-22;United States;24.15.223.10;34;147;150;128;;-1;2;92
A23JZKX95M40CY;;2JV21O3W5XH03321GDBYKPLTI9QBHD;1352254010;;Chrome-22;United States;98.154.17.0;17;89;65;0;;0;1;56
A3E0AY1XXP8IBQ;;2JV21O3W5XH03321GDBYKPLTI9QBHD;1352254010;;Firefox-16;United States;98.206.76.203;22;263;300;0;;-1;1;90
A1D5T2IUI9TZNB;;2JV21O3W5XH03321GDBYKPLTI9QBHD;1352254011;;Firefox-16;United States;67.168.197.62;17;427;230;0;;0;1;33
A325JVOWCVG3MA;;2JV21O3W5XH03321GDBYKPLTI9QBHD;1352254011;;Safari-6;United States;174.252.112.174;6;249;650;0;;-1;1;3
A1F14BB4PV053A;;2JV21O3W5XH03321GDBYKPLTI9QBHD;1352254011;;Firefox-14;United States;76.181.205.211;24;266;700;0;;0;1;66
A2YKFDGF4WVI1O;;2JV21O3W5XH03321GDBYKPLTI9QBHD;1352254012;;Firefox-16;United States;98.235.170.87;28;475;444;0;;1;1;175
A309BLCQJHQULO;;2JV21O3W5XH03321GDBYKPLTI9QBHD;1352254012;;Chrome-22;United States;97.103.144.202;32;164;225;164;;0;2;225
A3IL7ZPRL8SU05;;2JV21O3W5XH03321GDBYKPLTI9QBHD;1352254012;;Safari-6;United States;184.1.25.30;31;290;230;246;;-1;2;251
A1P5N4F97A45O1;;2JV21O3W5XH03321GDBYKPLTI9QBHD;1352254012;;Safari-6;United States;68.8.120.57;30;158;100;0;;-1;1;162
A2AB9WEOEPG7WR;;2JV21O3W5XH03321GDBYKPLTI9QBHD;1352254012;;Chrome-22;United States;68.199.87.165;15;365;121;0;;1;1;19
A2QF8NUVGZY90J;;2JV21O3W5XH03321GDBYKPLTI9QBHD;1352254012;;Firefox-16;United States;68.96.97.86;11;95;100;0;;-1;1;89
A2V1KDMAJ663EU;;2JV21O3W5XH03321GDBYKPLTI9QBHD;1352254013;;Chrome-22;United States;68.84.62.127;15;422;333;0;;1;1;99
AXPFY62AF6SMP;;2JV21O3W5XH03321GDBYKPLTI9QBHD;1352254013;;Firefox-16;United States;70.114.163.35;14;11;20;0;;-1;1;85
A22SZHZTF72TRM;;2JV21O3W5XH03321GDBYKPLTI9QBHD;1352254014;;Chrome-22;United States;209.23.243.42;48;55;65;50;;-1;2;394
A15VZBRE9J8PS5;;2JV21O3W5XH03321GDBYKPLTI9QBHD;1352254014;;Firefox-16;United States;69.12.207.61;11;169;197;0;;0;1;94
A140WD05T13AVN;;2JV21O3W5XH03321GDBYKPLTI9QBHD;1352254014;;Chrome-22;United States;67.140.76.21;15;20;40;0;;0;1;67
A2SYRFPPV9WDEG;;2JV21O3W5XH03321GDBYKPLTI9QBHD;1352254014;;Firefox-19;United States;66.75.77.46;20;20;25;0;;-1;1;73
A17AMTRIYI2Z2D;;2JV21O3W5XH03321GDBYKPLTI9QBHD;1352254015;;Firefox-16;United States;184.155.19.25;7;254;100;0;;0;1;1
A23JZKX95M40CY;;2JV21O3W5XH03321GDBYKPLTI9QBHD;1352254015;;Chrome-22;United States;98.154.17.0;18;444;189;0;;0;1;56
AXOR2N1EAFVYF;;2JV21O3W5XH03321GDBYKPLTI9QBHD;1352254015;;Chrome-22;United States;24.15.223.10;35;308;130;261;;-1;2;93
A31A74EUH1VI3G;;2JV21O3W5XH03321GDBYKPLTI9QBHD;1352254015;;Chrome-22;United States;98.16.170.225;19;97;60;0;;0;1;77
A3E0AY1XXP8IBQ;;2JV21O3W5XH03321GDBYKPLTI9QBHD;1352254015;;Firefox-16;United States;98.206.76.203;23;35;20;0;;-1;1;93
A1D5T2IUI9TZNB;;2JV21O3W5XH03321GDBYKPLTI9QBHD;1352254015;;Firefox-16;United States;67.168.197.62;18;366;125;0;;0;1;33
A2V6SYSAA0PML1;;2JV21O3W5XH03321GDBYKPLTI9QBHD;1352254016;;Chrome-22;United States;107.15.18.40;11;119;59;0;;0;1;33
A1SFZ9BHP4WSAQ;;2JV21O3W5XH03321GDBYKPLTI9QBHD;1352254016;;Firefox-16;United States;50.55.177.153;16;145;55;0;;0;1;90
A38OOGMA0M6KFC;;2JV21O3W5XH03321GDBYKPLTI9QBHD;1352254016;;Chrome-22;United States;76.102.91.208;10;67;60;0;;1;1;56
A1F14BB4PV053A;;2JV21O3W5XH03321GDBYKPLTI9QBHD;1352254016;;Firefox-14;United States;76.181.205.211;25;18;30;0;;0;1;69
A1P5N4F97A45O1;;2JV21O3W5XH03321GDBYKPLTI9QBHD;1352254016;;Safari-6;United States;68.8.120.57;31;46;10;42;;-1;2;162
A1Q8F185LEGWP9;;2JV21O3W5XH03321GDBYKPLTI9QBHD;1352254016;;Firefox-16;United States;74.235.191.63;11;301;350;0;;0;1;89
A3TVDFJ22T1FFN;;2JV21O3W5XH03321GDBYKPLTI9QBHD;1352254017;;Chrome-22;India;116.202.117.215;3;404;120;0;;1;1;1
A2AB9WEOEPG7WR;;2JV21O3W5XH03321GDBYKPLTI9QBHD;1352254017;;Chrome-22;United States;68.199.87.165;16;376;135;0;;1;1;19
A2YKFDGF4WVI1O;;2JV21O3W5XH03321GDBYKPLTI9QBHD;1352254017;;Firefox-16;United States;98.235.170.87;29;184;125;0;;1;1;180
A309BLCQJHQULO;;2JV21O3W5XH03321GDBYKPLTI9QBHD;1352254017;;Chrome-22;United States;97.103.144.202;33;341;200;341;;0;2;228
A39RBYX03I6A51;;2JV21O3W5XH03321GDBYKPLTI9QBHD;1352254017;;Chrome-8;India;180.215.8.191;15;14;89089;0;;1;1;30
A325JVOWCVG3MA;;2JV21O3W5XH03321GDBYKPLTI9QBHD;1352254018;;Safari-6;United States;174.252.112.174;7;369;950;0;;-1;1;3
A3IL7ZPRL8SU05;;2JV21O3W5XH03321GDBYKPLTI9QBHD;1352254018;;Safari-6;United States;184.1.25.30;32;303;200;257;;-1;2;259
A3J5KZUQO0EN8N;;2JV21O3W5XH03321GDBYKPLTI9QBHD;1352254018;;Chrome-22;India;115.243.221.244;10;493;280;0;;0;1;51
A2V1KDMAJ663EU;;2JV21O3W5XH03321GDBYKPLTI9QBHD;1352254018;;Chrome-22;United States;68.84.62.127;16;336;278;0;;1;1;108
A3E0AY1XXP8IBQ;;2JV21O3W5XH03321GDBYKPLTI9QBHD;1352254019;;Firefox-16;United States;98.206.76.203;24;36;20;0;;-1;1;95
AXOR2N1EAFVYF;;2JV21O3W5XH03321GDBYKPLTI9QBHD;1352254019;;Chrome-22;United States;24.15.223.10;36;143;130;125;;-1;2;103
A22SZHZTF72TRM;;2JV21O3W5XH03321GDBYKPLTI9QBHD;1352254019;;Chrome-22;United States;209.23.243.42;49;41;55;38;;-1;2;400
A1D5T2IUI9TZNB;;2JV21O3W5XH03321GDBYKPLTI9QBHD;1352254019;;Firefox-16;United States;67.168.197.62;19;320;175;0;;0;1;35
A2QF8NUVGZY90J;;2JV21O3W5XH03321GDBYKPLTI9QBHD;1352254019;;Firefox-16;United States;68.96.97.86;12;417;430;0;;-1;1;99
A23JZKX95M40CY;;2JV21O3W5XH03321GDBYKPLTI9QBHD;1352254019;;Chrome-22;United States;98.154.17.0;19;11;12;0;;0;1;66
A31A74EUH1VI3G;;2JV21O3W5XH03321GDBYKPLTI9QBHD;1352254020;;Chrome-22;United States;98.16.170.225;20;311;125;0;;0;1;77
A140WD05T13AVN;;2JV21O3W5XH03321GDBYKPLTI9QBHD;1352254020;;Chrome-22;United States;67.140.76.21;16;98;65;0;;0;1;72
A1FRRZ7VEVQ2Y9;;2JV21O3W5XH03321GDBYKPLTI9QBHD;1352254020;;Chrome-22;United States;128.111.173.2;15;241;125.;0;;-1;1;58
A2SYRFPPV9WDEG;;2JV21O3W5XH03321GDBYKPLTI9QBHD;1352254020;;Firefox-19;United States;66.75.77.46;21;13;15;0;;-1;1;82
A1P5N4F97A45O1;;2JV21O3W5XH03321GDBYKPLTI9QBHD;1352254020;;Safari-6;United States;68.8.120.57;32;495;400;413;;-1;2;172
AXPFY62AF6SMP;;2JV21O3W5XH03321GDBYKPLTI9QBHD;1352254021;;Firefox-16;United States;70.114.163.35;15;98;67;0;;-1;1;90
A38OOGMA0M6KFC;;2JV21O3W5XH03321GDBYKPLTI9QBHD;1352254021;;Chrome-22;United States;76.102.91.208;11;295;90;0;;1;1;56
A15VZBRE9J8PS5;;2JV21O3W5XH03321GDBYKPLTI9QBHD;1352254021;;Firefox-16;United States;69.12.207.61;12;364;304;0;;0;1;103
A1Q8F185LEGWP9;;2JV21O3W5XH03321GDBYKPLTI9QBHD;1352254021;;Firefox-16;United States;74.235.191.63;12;340;350;0;;0;1;99
A17AMTRIYI2Z2D;;2JV21O3W5XH03321GDBYKPLTI9QBHD;1352254021;;Firefox-16;United States;184.155.19.25;8;295;200;0;;0;1;6
A309BLCQJHQULO;;2JV21O3W5XH03321GDBYKPLTI9QBHD;1352254022;;Chrome-22;United States;97.103.144.202;34;471;500;471;;0;2;238
A2V6SYSAA0PML1;;2JV21O3W5XH03321GDBYKPLTI9QBHD;1352254022;;Chrome-22;United States;107.15.18.40;12;289;99;0;;0;1;33
A2AB9WEOEPG7WR;;2JV21O3W5XH03321GDBYKPLTI9QBHD;1352254022;;Chrome-22;United States;68.199.87.165;17;439;138;0;;1;1;19
A1SFZ9BHP4WSAQ;;2JV21O3W5XH03321GDBYKPLTI9QBHD;1352254022;;Firefox-16;United States;50.55.177.153;17;436;350;0;;0;1;98
A3E0AY1XXP8IBQ;;2JV21O3W5XH03321GDBYKPLTI9QBHD;1352254023;;Firefox-16;United States;98.206.76.203;25;500;500;0;;-1;1;105
AXOR2N1EAFVYF;;2JV21O3W5XH03321GDBYKPLTI9QBHD;1352254023;;Chrome-22;United States;24.15.223.10;37;44;100;41;;-1;2;103
A1D5T2IUI9TZNB;;2JV21O3W5XH03321GDBYKPLTI9QBHD;1352254023;;Firefox-16;United States;67.168.197.62;20;119;75;0;;0;1;39
A2YKFDGF4WVI1O;;2JV21O3W5XH03321GDBYKPLTI9QBHD;1352254023;;Firefox-16;United States;98.235.170.87;30;161;88;0;;1;1;182
A1F14BB4PV053A;;2JV21O3W5XH03321GDBYKPLTI9QBHD;1352254023;;Firefox-14;United States;76.181.205.211;26;197;300;0;;0;1;74
A39RBYX03I6A51;;2JV21O3W5XH03321GDBYKPLTI9QBHD;1352254024;;Chrome-8;India;180.215.8.191;16;137;679;0;;1;1;30
A23JZKX95M40CY;;2JV21O3W5XH03321GDBYKPLTI9QBHD;1352254024;;Chrome-22;United States;98.154.17.0;20;453;160;0;;0;1;66
A1P5N4F97A45O1;;2JV21O3W5XH03321GDBYKPLTI9QBHD;1352254024;;Safari-6;United States;68.8.120.57;33;154;200;134;;-1;2;177
A2V1KDMAJ663EU;;2JV21O3W5XH03321GDBYKPLTI9QBHD;1352254024;;Chrome-22;United States;68.84.62.127;17;14;14;0;;1;1;118
A325JVOWCVG3MA;;2JV21O3W5XH03321GDBYKPLTI9QBHD;1352254025;;Safari-6;United States;174.252.112.174;8;156;600;0;;-1;1;3
A2QF8NUVGZY90J;;2JV21O3W5XH03321GDBYKPLTI9QBHD;1352254025;;Firefox-16;United States;68.96.97.86;13;353;360;0;;-1;1;109
A2SYRFPPV9WDEG;;2JV21O3W5XH03321GDBYKPLTI9QBHD;1352254025;;Firefox-19;United States;66.75.77.46;22;343;800;0;;-1;1;82
A31A74EUH1VI3G;;2JV21O3W5XH03321GDBYKPLTI9QBHD;1352254025;;Chrome-22;United States;98.16.170.225;21;314;195;0;;0;1;81
A1FRRZ7VEVQ2Y9;;2JV21O3W5XH03321GDBYKPLTI9QBHD;1352254026;;Chrome-22;United States;128.111.173.2;16;179;150;0;;-1;1;67
AXPFY62AF6SMP;;2JV21O3W5XH03321GDBYKPLTI9QBHD;1352254026;;Firefox-16;United States;70.114.163.35;16;73;54;0;;-1;1;97
A140WD05T13AVN;;2JV21O3W5XH03321GDBYKPLTI9QBHD;1352254027;;Chrome-22;United States;67.140.76.21;17;232;210;0;;0;1;82
A38OOGMA0M6KFC;;2JV21O3W5XH03321GDBYKPLTI9QBHD;1352254027;;Chrome-22;United States;76.102.91.208;12;196;150;0;;1;1;63
AXOR2N1EAFVYF;;2JV21O3W5XH03321GDBYKPLTI9QBHD;1352254027;;Chrome-22;United States;24.15.223.10;38;176;100;152;;-1;2;108
A309BLCQJHQULO;;2JV21O3W5XH03321GDBYKPLTI9QBHD;1352254027;;Chrome-22;United States;97.103.144.202;35;297;300;297;;0;2;248
A1Q8F185LEGWP9;;2JV21O3W5XH03321GDBYKPLTI9QBHD;1352254027;;Firefox-16;United States;74.235.191.63;13;435;400;0;;0;1;109
A2AB9WEOEPG7WR;;2JV21O3W5XH03321GDBYKPLTI9QBHD;1352254027;;Chrome-22;United States;68.199.87.165;18;273;45;0;;1;1;19
A3J5KZUQO0EN8N;;2JV21O3W5XH03321GDBYKPLTI9QBHD;1352254027;;Chrome-22;India;115.243.221.244;11;78;60;0;;0;1;58
A3E0AY1XXP8IBQ;;2JV21O3W5XH03321GDBYKPLTI9QBHD;1352254027;;Firefox-16;United States;98.206.76.203;26;427;600;0;;-1;1;111
A15VZBRE9J8PS5;;2JV21O3W5XH03321GDBYKPLTI9QBHD;1352254027;;Firefox-16;United States;69.12.207.61;13;81;72;0;;0;1;112
A1F14BB4PV053A;;2JV21O3W5XH03321GDBYKPLTI9QBHD;1352254028;;Firefox-14;United States;76.181.205.211;27;397;600;0;;0;1;79
A22SZHZTF72TRM;;2JV21O3W5XH03321GDBYKPLTI9QBHD;1352254028;;Chrome-22;United States;209.23.243.42;50;23;33;22;;-1;2;405
A2YKFDGF4WVI1O;;2JV21O3W5XH03321GDBYKPLTI9QBHD;1352254028;;Firefox-16;United States;98.235.170.87;31;176;166;204;;1;2;190
A1P5N4F97A45O1;;2JV21O3W5XH03321GDBYKPLTI9QBHD;1352254028;;Safari-6;United States;68.8.120.57;34;230;299;197;;-1;2;182
A39RBYX03I6A51;;2JV21O3W5XH03321GDBYKPLTI9QBHD;1352254028;;Chrome-8;India;180.215.8.191;17;48;889;0;;1;1;30
A1D5T2IUI9TZNB;;2JV21O3W5XH03321GDBYKPLTI9QBHD;1352254029;;Firefox-16;United States;67.168.197.62;21;385;235;0;;0;1;42
A3IL7ZPRL8SU05;;2JV21O3W5XH03321GDBYKPLTI9QBHD;1352254029;;Safari-6;United States;184.1.25.30;33;248;200;212;;-1;2;269
A23JZKX95M40CY;;2JV21O3W5XH03321GDBYKPLTI9QBHD;1352254029;;Chrome-22;United States;98.154.17.0;21;101;66;0;;0;1;71
A2V6SYSAA0PML1;;2JV21O3W5XH03321GDBYKPLTI9QBHD;1352254029;;Chrome-22;United States;107.15.18.40;13;57;46;0;;0;1;41
A31A74EUH1VI3G;;2JV21O3W5XH03321GDBYKPLTI9QBHD;1352254029;;Chrome-22;United States;98.16.170.225;22;450;250;0;;0;1;83
A2SYRFPPV9WDEG;;2JV21O3W5XH03321GDBYKPLTI9QBHD;1352254029;;Firefox-19;United States;66.75.77.46;23;97;150;0;;-1;1;86
A3TVDFJ22T1FFN;;2JV21O3W5XH03321GDBYKPLTI9QBHD;1352254029;;Chrome-22;India;116.202.117.215;4;438;100;0;;1;1;1
A17AMTRIYI2Z2D;;2JV21O3W5XH03321GDBYKPLTI9QBHD;1352254030;;Firefox-16;United States;184.155.19.25;9;499;195;0;;0;1;6
A2V1KDMAJ663EU;;2JV21O3W5XH03321GDBYKPLTI9QBHD;1352254031;;Chrome-22;United States;68.84.62.127;18;164;111;0;;1;1;123
A2QF8NUVGZY90J;;2JV21O3W5XH03321GDBYKPLTI9QBHD;1352254031;;Firefox-16;United States;68.96.97.86;14;290;275;0;;-1;1;119
A38OOGMA0M6KFC;;2JV21O3W5XH03321GDBYKPLTI9QBHD;1352254031;;Chrome-22;United States;76.102.91.208;13;18;20;0;;1;1;73
A1FRRZ7VEVQ2Y9;;2JV21O3W5XH03321GDBYKPLTI9QBHD;1352254031;;Chrome-22;United States;128.111.173.2;17;150;200;0;;-1;1;74
A309BLCQJHQULO;;2JV21O3W5XH03321GDBYKPLTI9QBHD;1352254031;;Chrome-22;United States;97.103.144.202;36;261;200;261;;0;2;255
A325JVOWCVG3MA;;2JV21O3W5XH03321GDBYKPLTI9QBHD;1352254031;;Safari-6;United States;174.252.112.174;9;394;1050;0;;-1;1;3
A1SFZ9BHP4WSAQ;;2JV21O3W5XH03321GDBYKPLTI9QBHD;1352254031;;Firefox-16;United States;50.55.177.153;18;441;390;0;;0;1;107
AXOR2N1EAFVYF;;2JV21O3W5XH03321GDBYKPLTI9QBHD;1352254031;;Chrome-22;United States;24.15.223.10;39;38;70;35;;-1;2;109
A3E0AY1XXP8IBQ;;2JV21O3W5XH03321GDBYKPLTI9QBHD;1352254032;;Firefox-16;United States;98.206.76.203;27;465;600;0;;-1;1;119
A1P5N4F97A45O1;;2JV21O3W5XH03321GDBYKPLTI9QBHD;1352254032;;Safari-6;United States;68.8.120.57;35;106;100;94;;-1;2;192
A2AB9WEOEPG7WR;;2JV21O3W5XH03321GDBYKPLTI9QBHD;1352254032;;Chrome-22;United States;68.199.87.165;19;16;10;0;;1;1;23
A1F14BB4PV053A;;2JV21O3W5XH03321GDBYKPLTI9QBHD;1352254032;;Firefox-14;United States;76.181.205.211;28;87;111;0;;0;1;87
A1D5T2IUI9TZNB;;2JV21O3W5XH03321GDBYKPLTI9QBHD;1352254033;;Firefox-16;United States;67.168.197.62;22;319;200;0;;0;1;46
A2YKFDGF4WVI1O;;2JV21O3W5XH03321GDBYKPLTI9QBHD;1352254033;;Firefox-16;United States;98.235.170.87;32;67;204;74;;1;2;190
A23JZKX95M40CY;;2JV21O3W5XH03321GDBYKPLTI9QBHD;1352254033;;Chrome-22;United States;98.154.17.0;22;385;200;0;;0;1;73
A140WD05T13AVN;;2JV21O3W5XH03321GDBYKPLTI9QBHD;1352254033;;Chrome-22;United States;67.140.76.21;18;394;740;0;;0;1;84
A1Q8F185LEGWP9;;2JV21O3W5XH03321GDBYKPLTI9QBHD;1352254033;;Firefox-16;United States;74.235.191.63;14;165;150;0;;0;1;119
AXPFY62AF6SMP;;2JV21O3W5XH03321GDBYKPLTI9QBHD;1352254033;;Firefox-16;United States;70.114.163.35;17;478;352;0;;-1;1;104
A39RBYX03I6A51;;2JV21O3W5XH03321GDBYKPLTI9QBHD;1352254034;;Chrome-8;India;180.215.8.191;18;263;788;0;;1;1;30
A22SZHZTF72TRM;;2JV21O3W5XH03321GDBYKPLTI9QBHD;1352254034;;Chrome-22;United States;209.23.243.42;51;197;150;170;;-1;2;414
A15VZBRE9J8PS5;;2JV21O3W5XH03321GDBYKPLTI9QBHD;1352254034;;Firefox-16;United States;69.12.207.61;14;64;62;0;;0;1;122
A2V6SYSAA0PML1;;2JV21O3W5XH03321GDBYKPLTI9QBHD;1352254034;;Chrome-22;United States;107.15.18.40;14;420;122;0;;0;1;41
A3IL7ZPRL8SU05;;2JV21O3W5XH03321GDBYKPLTI9QBHD;1352254034;;Safari-6;United States;184.1.25.30;34;58;150;53;;-1;2;269
A2SYRFPPV9WDEG;;2JV21O3W5XH03321GDBYKPLTI9QBHD;1352254034;;Firefox-19;United States;66.75.77.46;24;395;700;0;;-1;1;88
AXOR2N1EAFVYF;;2JV21O3W5XH03321GDBYKPLTI9QBHD;1352254035;;Chrome-22;United States;24.15.223.10;40;27;50;26;;-1;2;111
A31A74EUH1VI3G;;2JV21O3W5XH03321GDBYKPLTI9QBHD;1352254035;;Chrome-22;United States;98.16.170.225;23;211;200;0;;0;1;93
A1FRRZ7VEVQ2Y9;;2JV21O3W5XH03321GDBYKPLTI9QBHD;1352254036;;Chrome-22;United States;128.111.173.2;18;254;220;0;;-1;1;83
A309BLCQJHQULO;;2JV21O3W5XH03321GDBYKPLTI9QBHD;1352254036;;Chrome-22;United States;97.103.144.202;37;407;400;407;;0;2;265
A3E0AY1XXP8IBQ;;2JV21O3W5XH03321GDBYKPLTI9QBHD;1352254036;;Firefox-16;United States;98.206.76.203;28;60;20;0;;-1;1;119
A2V1KDMAJ663EU;;2JV21O3W5XH03321GDBYKPLTI9QBHD;1352254036;;Chrome-22;United States;68.84.62.127;19;195;156;0;;1;1;131
A23JZKX95M40CY;;2JV21O3W5XH03321GDBYKPLTI9QBHD;1352254036;;Chrome-22;United States;98.154.17.0;23;91;43;0;;0;1;74
A1D5T2IUI9TZNB;;2JV21O3W5XH03321GDBYKPLTI9QBHD;1352254037;;Firefox-16;United States;67.168.197.62;23;73;50;0;;0;1;51
A17AMTRIYI2Z2D;;2JV21O3W5XH03321GDBYKPLTI9QBHD;1352254037;;Firefox-16;United States;184.155.19.25;10;150;100;0;;0;1;11
A38OOGMA0M6KFC;;2JV21O3W5XH03321GDBYKPLTI9QBHD;1352254037;;Chrome-22;United States;76.102.91.208;14;274;160;0;;1;1;76
A1F14BB4PV053A;;2JV21O3W5XH03321GDBYKPLTI9QBHD;1352254037;;Firefox-14;United States;76.181.205.211;29;213;222;0;;0;1;97
A1SFZ9BHP4WSAQ;;2JV21O3W5XH03321GDBYKPLTI9QBHD;1352254037;;Firefox-16;United States;50.55.177.153;19;236;120;0;;0;1;108
A1P5N4F97A45O1;;2JV21O3W5XH03321GDBYKPLTI9QBHD;1352254038;;Safari-6;United States;68.8.120.57;36;209;299;180;;-1;2;195
A325JVOWCVG3MA;;2JV21O3W5XH03321GDBYKPLTI9QBHD;1352254038;;Safari-6;United States;174.252.112.174;10;113;300;0;;-1;1;3
A140WD05T13AVN;;2JV21O3W5XH03321GDBYKPLTI9QBHD;1352254038;;Chrome-22;United States;67.140.76.21;19;14;8;0;;0;1;87
A2YKFDGF4WVI1O;;2JV21O3W5XH03321GDBYKPLTI9QBHD;1352254038;;Firefox-16;United States;98.235.170.87;33;483;444;579;;1;2;197
A2QF8NUVGZY90J;;2JV21O3W5XH03321GDBYKPLTI9QBHD;1352254038;;Firefox-16;United States;68.96.97.86;15;236;240;0;;-1;1;129
A1Q8F185LEGWP9;;2JV21O3W5XH03321GDBYKPLTI9QBHD;1352254038;;Firefox-16;United States;74.235.191.63;15;385;450;0;;0;1;128
A22SZHZTF72TRM;;2JV21O3W5XH03321GDBYKPLTI9QBHD;1352254039;;Chrome-22;United States;209.23.243.42;52;55;60;50;;-1;2;423
A2V6SYSAA0PML1;;2JV21O3W5XH03321GDBYKPLTI9QBHD;1352254039;;Chrome-22;United States;107.15.18.40;15;162;80;0;;0;1;42
A3J5KZUQO0EN8N;;2JV21O3W5XH03321GDBYKPLTI9QBHD;1352254039;;Chrome-22;India;115.243.221.244;12;157;50;0;;0;1;58
A2AB9WEOEPG7WR;;2JV21O3W5XH03321GDBYKPLTI9QBHD;1352254039;;Chrome-22;United States;68.199.87.165;20;449;129;0;;1;1;23
AXOR2N1EAFVYF;;2JV21O3W5XH03321GDBYKPLTI9QBHD;1352254039;;Chrome-22;United States;24.15.223.10;41;311;200;264;;-1;2;118
A31A74EUH1VI3G;;2JV21O3W5XH03321GDBYKPLTI9QBHD;1352254039;;Chrome-22;United States;98.16.170.225;24;482;300;0;;0;1;97
A3IL7ZPRL8SU05;;2JV21O3W5XH03321GDBYKPLTI9QBHD;1352254040;;Safari-6;United States;184.1.25.30;35;157;160;137;;-1;2;278
A39RBYX03I6A51;;2JV21O3W5XH03321GDBYKPLTI9QBHD;1352254040;;Chrome-8;India;180.215.8.191;19;154;990;0;;1;1;30
AXPFY62AF6SMP;;2JV21O3W5XH03321GDBYKPLTI9QBHD;1352254040;;Firefox-16;United States;70.114.163.35;18;368;500;0;;-1;1;111
A3E0AY1XXP8IBQ;;2JV21O3W5XH03321GDBYKPLTI9QBHD;1352254040;;Firefox-16;United States;98.206.76.203;29;139;50;0;;-1;1;119
A15VZBRE9J8PS5;;2JV21O3W5XH03321GDBYKPLTI9QBHD;1352254040;;Firefox-16;United States;69.12.207.61;15;224;227;0;;0;1;132
A23JZKX95M40CY;;2JV21O3W5XH03321GDBYKPLTI9QBHD;1352254040;;Chrome-22;United States;98.154.17.0;24;146;54;0;;0;1;74
A1D5T2IUI9TZNB;;2JV21O3W5XH03321GDBYKPLTI9QBHD;1352254040;;Firefox-16;United States;67.168.197.62;24;495;300;0;;0;1;54
A1F14BB4PV053A;;2JV21O3W5XH03321GDBYKPLTI9QBHD;1352254041;;Firefox-14;United States;76.181.205.211;30;336;333;0;;0;1;107
A309BLCQJHQULO;;2JV21O3W5XH03321GDBYKPLTI9QBHD;1352254042;;Chrome-22;United States;97.103.144.202;38;334;250;334;;0;2;272
A38OOGMA0M6KFC;;2JV21O3W5XH03321GDBYKPLTI9QBHD;1352254042;;Chrome-22;United States;76.102.91.208;15;172;130;0;;1;1;83
A1P5N4F97A45O1;;2JV21O3W5XH03321GDBYKPLTI9QBHD;1352254042;;Safari-6;United States;68.8.120.57;37;500;400;417;;-1;2;205
AXOR2N1EAFVYF;;2JV21O3W5XH03321GDBYKPLTI9QBHD;1352254043;;Chrome-22;United States;24.15.223.10;42;290;300;246;;-1;2;126
A2QF8NUVGZY90J;;2JV21O3W5XH03321GDBYKPLTI9QBHD;1352254043;;Firefox-16;United States;68.96.97.86;16;374;225;0;;-1;1;132
A2V1KDMAJ663EU;;2JV21O3W5XH03321GDBYKPLTI9QBHD;1352254043;;Chrome-22;United States;68.84.62.127;20;139;145;0;;1;1;141
A2YKFDGF4WVI1O;;2JV21O3W5XH03321GDBYKPLTI9QBHD;1352254043;;Firefox-16;United States;98.235.170.87;34;436;522;521;;1;2;207
A17AMTRIYI2Z2D;;2JV21O3W5XH03321GDBYKPLTI9QBHD;1352254043;;Firefox-16;United States;184.155.19.25;11;451;275;0;;0;1;14
A1SFZ9BHP4WSAQ;;2JV21O3W5XH03321GDBYKPLTI9QBHD;1352254044;;Firefox-16;United States;50.55.177.153;20;368;200;0;;0;1;110
A3IL7ZPRL8SU05;;2JV21O3W5XH03321GDBYKPLTI9QBHD;1352254044;;Safari-6;United States;184.1.25.30;36;316;200;268;;-1;2;285
A1Q8F185LEGWP9;;2JV21O3W5XH03321GDBYKPLTI9QBHD;1352254044;;Firefox-16;United States;74.235.191.63;16;200;200;0;;0;1;138
A3E0AY1XXP8IBQ;;2JV21O3W5XH03321GDBYKPLTI9QBHD;1352254044;;Firefox-16;United States;98.206.76.203;30;169;100;0;;-1;1;122
A31A74EUH1VI3G;;2JV21O3W5XH03321GDBYKPLTI9QBHD;1352254044;;Chrome-22;United States;98.16.170.225;25;370;300;0;;0;1;105
A23JZKX95M40CY;;2JV21O3W5XH03321GDBYKPLTI9QBHD;1352254044;;Chrome-22;United States;98.154.17.0;25;98;41;0;;0;1;74
A1D5T2IUI9TZNB;;2JV21O3W5XH03321GDBYKPLTI9QBHD;1352254044;;Firefox-16;United States;67.168.197.62;25;11;6;0;;0;1;56
A2V6SYSAA0PML1;;2JV21O3W5XH03321GDBYKPLTI9QBHD;1352254044;;Chrome-22;United States;107.15.18.40;16;382;105;0;;0;1;42
A2AB9WEOEPG7WR;;2JV21O3W5XH03321GDBYKPLTI9QBHD;1352254045;;Chrome-22;United States;68.199.87.165;21;251;61;0;;1;1;23
A1F14BB4PV053A;;2JV21O3W5XH03321GDBYKPLTI9QBHD;1352254045;;Firefox-14;United States;76.181.205.211;31;182;444;182;;0;2;107
A22SZHZTF72TRM;;2JV21O3W5XH03321GDBYKPLTI9QBHD;1352254045;;Chrome-22;United States;209.23.243.42;53;78;110;70;;-1;2;427
A1P5N4F97A45O1;;2JV21O3W5XH03321GDBYKPLTI9QBHD;1352254046;;Safari-6;United States;68.8.120.57;38;271;300;231;;-1;2;212
A325JVOWCVG3MA;;2JV21O3W5XH03321GDBYKPLTI9QBHD;1352254046;;Safari-6;United States;174.252.112.174;11;426;1200;0;;-1;1;3
A3TVDFJ22T1FFN;;2JV21O3W5XH03321GDBYKPLTI9QBHD;1352254046;;Chrome-22;India;116.202.117.215;5;119;50;0;;1;1;1
AXOR2N1EAFVYF;;2JV21O3W5XH03321GDBYKPLTI9QBHD;1352254046;;Chrome-22;United States;24.15.223.10;43;481;300;402;;-1;2;133
A309BLCQJHQULO;;2JV21O3W5XH03321GDBYKPLTI9QBHD;1352254047;;Chrome-22;United States;97.103.144.202;39;39;25;39;;0;2;276
A140WD05T13AVN;;2JV21O3W5XH03321GDBYKPLTI9QBHD;1352254047;;Chrome-22;United States;67.140.76.21;20;162;145;0;;0;1;96
A39RBYX03I6A51;;2JV21O3W5XH03321GDBYKPLTI9QBHD;1352254048;;Chrome-8;India;180.215.8.191;20;92;999;0;;1;1;30
A3E0AY1XXP8IBQ;;2JV21O3W5XH03321GDBYKPLTI9QBHD;1352254048;;Firefox-16;United States;98.206.76.203;31;162;100;141;;-1;2;128
A3IL7ZPRL8SU05;;2JV21O3W5XH03321GDBYKPLTI9QBHD;1352254048;;Safari-6;United States;184.1.25.30;37;355;260;300;;-1;2;294
A31A74EUH1VI3G;;2JV21O3W5XH03321GDBYKPLTI9QBHD;1352254048;;Chrome-22;United States;98.16.170.225;26;354;300;0;;0;1;114
A38OOGMA0M6KFC;;2JV21O3W5XH03321GDBYKPLTI9QBHD;1352254049;;Chrome-22;United States;76.102.91.208;16;179;110;0;;1;1;87
A1Q8F185LEGWP9;;2JV21O3W5XH03321GDBYKPLTI9QBHD;1352254049;;Firefox-16;United States;74.235.191.63;17;229;250;0;;0;1;148
A2V6SYSAA0PML1;;2JV21O3W5XH03321GDBYKPLTI9QBHD;1352254049;;Chrome-22;United States;107.15.18.40;17;238;90;0;;0;1;42
A1D5T2IUI9TZNB;;2JV21O3W5XH03321GDBYKPLTI9QBHD;1352254049;;Firefox-16;United States;67.168.197.62;26;334;195;0;;0;1;59
A15VZBRE9J8PS5;;2JV21O3W5XH03321GDBYKPLTI9QBHD;1352254049;;Firefox-16;United States;69.12.207.61;16;386;468;0;;0;1;141
A2YKFDGF4WVI1O;;2JV21O3W5XH03321GDBYKPLTI9QBHD;1352254049;;Firefox-16;United States;98.235.170.87;35;259;266;304;;1;2;216
A2V1KDMAJ663EU;;2JV21O3W5XH03321GDBYKPLTI9QBHD;1352254049;;Chrome-22;United States;68.84.62.127;21;117;111;0;;1;1;151
A1P5N4F97A45O1;;2JV21O3W5XH03321GDBYKPLTI9QBHD;1352254049;;Safari-6;United States;68.8.120.57;39;19;100;18;;-1;2;212
A3J5KZUQO0EN8N;;2JV21O3W5XH03321GDBYKPLTI9QBHD;1352254049;;Chrome-22;India;115.243.221.244;13;421;180;0;;0;1;58
A22SZHZTF72TRM;;2JV21O3W5XH03321GDBYKPLTI9QBHD;1352254050;;Chrome-22;United States;209.23.243.42;54;281;190;239;;-1;2;435
A2AB9WEOEPG7WR;;2JV21O3W5XH03321GDBYKPLTI9QBHD;1352254050;;Chrome-22;United States;68.199.87.165;22;238;77;0;;1;1;23
A1SFZ9BHP4WSAQ;;2JV21O3W5XH03321GDBYKPLTI9QBHD;1352254050;;Firefox-16;United States;50.55.177.153;21;32;17;0;;0;1;112
A17AMTRIYI2Z2D;;2JV21O3W5XH03321GDBYKPLTI9QBHD;1352254050;;Firefox-16;United States;184.155.19.25;12;357;300;0;;0;1;23
AXOR2N1EAFVYF;;2JV21O3W5XH03321GDBYKPLTI9QBHD;1352254050;;Chrome-22;United States;24.15.223.10;44;320;350;271;;-1;2;141
AXPFY62AF6SMP;;2JV21O3W5XH03321GDBYKPLTI9QBHD;1352254051;;Firefox-16;United States;70.114.163.35;19;39;61;0;;-1;1;115
A2QF8NUVGZY90J;;2JV21O3W5XH03321GDBYKPLTI9QBHD;1352254051;;Firefox-16;United States;68.96.97.86;17;321;279;0;;-1;1;141
A309BLCQJHQULO;;2JV21O3W5XH03321GDBYKPLTI9QBHD;1352254051;;Chrome-22;United States;97.103.144.202;40;122;50;122;;0;2;276
A3E0AY1XXP8IBQ;;2JV21O3W5XH03321GDBYKPLTI9QBHD;1352254052;;Firefox-16;United States;98.206.76.203;32;368;500;310;;-1;2;132
A325JVOWCVG3MA;;2JV21O3W5XH03321GDBYKPLTI9QBHD;1352254052;;Safari-6;United States;174.252.112.174;12;430;1300;0;;-1;1;3
A31A74EUH1VI3G;;2JV21O3W5XH03321GDBYKPLTI9QBHD;1352254052;;Chrome-22;United States;98.16.170.225;27;471;400;0;;0;1;123
A140WD05T13AVN;;2JV21O3W5XH03321GDBYKPLTI9QBHD;1352254052;;Chrome-22;United States;67.140.76.21;21;196;267;0;;0;1;103
A1P5N4F97A45O1;;2JV21O3W5XH03321GDBYKPLTI9QBHD;1352254053;;Safari-6;United States;68.8.120.57;40;285;200;242;;-1;2;221
A2G0HRT8HS9HRZ;;2JV21O3W5XH03321GDBYKPLTI9QBHD;1352254053;;Firefox-16;United States;67.233.58.22;1;352;50;0;;1;1;0
A38OOGMA0M6KFC;;2JV21O3W5XH03321GDBYKPLTI9QBHD;1352254053;;Chrome-22;United States;76.102.91.208;17;131;95;0;;1;1;93
AXOR2N1EAFVYF;;2JV21O3W5XH03321GDBYKPLTI9QBHD;1352254054;;Chrome-22;United States;24.15.223.10;45;359;350;303;;-1;2;150
A1F14BB4PV053A;;2JV21O3W5XH03321GDBYKPLTI9QBHD;1352254054;;Firefox-14;United States;76.181.205.211;32;417;778;417;;0;2;109
A3TVDFJ22T1FFN;;2JV21O3W5XH03321GDBYKPLTI9QBHD;1352254054;;Chrome-22;India;116.202.117.215;6;192;60;0;;1;1;1
A1D5T2IUI9TZNB;;2JV21O3W5XH03321GDBYKPLTI9QBHD;1352254054;;Firefox-16;United States;67.168.197.62;27;379;210;0;;0;1;61
A22SZHZTF72TRM;;2JV21O3W5XH03321GDBYKPLTI9QBHD;1352254055;;Chrome-22;United States;209.23.243.42;55;275;220;234;;-1;2;445
A2AB9WEOEPG7WR;;2JV21O3W5XH03321GDBYKPLTI9QBHD;1352254055;;Chrome-22;United States;68.199.87.165;23;334;73;0;;1;1;23
A3IL7ZPRL8SU05;;2JV21O3W5XH03321GDBYKPLTI9QBHD;1352254054;;Safari-6;United States;184.1.25.30;38;347;250;293;;-1;2;303
A2V1KDMAJ663EU;;2JV21O3W5XH03321GDBYKPLTI9QBHD;1352254055;;Chrome-22;United States;68.84.62.127;22;135;135;0;;1;1;161
A2V6SYSAA0PML1;;2JV21O3W5XH03321GDBYKPLTI9QBHD;1352254055;;Chrome-22;United States;107.15.18.40;18;406;135;0;;0;1;42
A3E0AY1XXP8IBQ;;2JV21O3W5XH03321GDBYKPLTI9QBHD;1352254056;;Firefox-16;United States;98.206.76.203;33;408;500;343;;-1;2;137
A2YKFDGF4WVI1O;;2JV21O3W5XH03321GDBYKPLTI9QBHD;1352254056;;Firefox-16;United States;98.235.170.87;36;66;99;73;;1;2;223
A1Q8F185LEGWP9;;2JV21O3W5XH03321GDBYKPLTI9QBHD;1352254056;;Firefox-16;United States;74.235.191.63;18;168;100;0;;0;1;151
A39RBYX03I6A51;;2JV21O3W5XH03321GDBYKPLTI9QBHD;1352254056;;Chrome-8;India;180.215.8.191;21;83;788;0;;1;1;30
A309BLCQJHQULO;;2JV21O3W5XH03321GDBYKPLTI9QBHD;1352254056;;Chrome-22;United States;97.103.144.202;41;403;400;403;;0;2;286
A15VZBRE9J8PS5;;2JV21O3W5XH03321GDBYKPLTI9QBHD;1352254056;;Firefox-16;United States;69.12.207.61;17;158;138;0;;0;1;150
A1SFZ9BHP4WSAQ;;2JV21O3W5XH03321GDBYKPLTI9QBHD;1352254057;;Firefox-16;United States;50.55.177.153;22;204;99;0;;0;1;113
A31A74EUH1VI3G;;2JV21O3W5XH03321GDBYKPLTI9QBHD;1352254057;;Chrome-22;United States;98.16.170.225;28;309;200;0;;0;1;127
A1P5N4F97A45O1;;2JV21O3W5XH03321GDBYKPLTI9QBHD;1352254057;;Safari-6;United States;68.8.120.57;41;180;100;156;;-1;2;225
AXPFY62AF6SMP;;2JV21O3W5XH03321GDBYKPLTI9QBHD;1352254057;;Firefox-16;United States;70.114.163.35;20;139;180;0;;-1;1;122
AXOR2N1EAFVYF;;2JV21O3W5XH03321GDBYKPLTI9QBHD;1352254058;;Chrome-22;United States;24.15.223.10;46;202;200;174;;-1;2;159
A2QF8NUVGZY90J;;2JV21O3W5XH03321GDBYKPLTI9QBHD;1352254058;;Firefox-16;United States;68.96.97.86;18;254;290;0;;-1;1;150
A140WD05T13AVN;;2JV21O3W5XH03321GDBYKPLTI9QBHD;1352254058;;Chrome-22;United States;67.140.76.21;22;198;249;0;;0;1;111
A17AMTRIYI2Z2D;;2JV21O3W5XH03321GDBYKPLTI9QBHD;1352254058;;Firefox-16;United States;184.155.19.25;13;255;200;0;;0;1;31
A38OOGMA0M6KFC;;2JV21O3W5XH03321GDBYKPLTI9QBHD;1352254058;;Chrome-22;United States;76.102.91.208;18;315;130;0;;1;1;93
A325JVOWCVG3MA;;2JV21O3W5XH03321GDBYKPLTI9QBHD;1352254059;;Safari-6;United States;174.252.112.174;13;404;1300;0;;-1;1;3
A1D5T2IUI9TZNB;;2JV21O3W5XH03321GDBYKPLTI9QBHD;1352254059;;Firefox-16;United States;67.168.197.62;28;288;150;0;;0;1;63
A2AB9WEOEPG7WR;;2JV21O3W5XH03321GDBYKPLTI9QBHD;1352254059;;Chrome-22;United States;68.199.87.165;24;21;8;0;;1;1;23
A2V1KDMAJ663EU;;2JV21O3W5XH03321GDBYKPLTI9QBHD;1352254059;;Chrome-22;United States;68.84.62.127;23;374;333;0;;1;1;170
A1F14BB4PV053A;;2JV21O3W5XH03321GDBYKPLTI9QBHD;1352254060;;Firefox-14;United States;76.181.205.211;33;198;222;198;;0;2;118
A3E0AY1XXP8IBQ;;2JV21O3W5XH03321GDBYKPLTI9QBHD;1352254060;;Firefox-16;United States;98.206.76.203;34;461;400;385;;-1;2;147
A3IL7ZPRL8SU05;;2JV21O3W5XH03321GDBYKPLTI9QBHD;1352254060;;Safari-6;United States;184.1.25.30;39;74;79;66;;-1;2;312
A2V6SYSAA0PML1;;2JV21O3W5XH03321GDBYKPLTI9QBHD;1352254060;;Chrome-22;United States;107.15.18.40;19;332;112;0;;0;1;42
A1P5N4F97A45O1;;2JV21O3W5XH03321GDBYKPLTI9QBHD;1352254060;;Safari-6;United States;68.8.120.57;42;227;200;195;;-1;2;235
A1Q8F185LEGWP9;;2JV21O3W5XH03321GDBYKPLTI9QBHD;1352254060;;Firefox-16;United States;74.235.191.63;19;46;25;0;;0;1;153
A3J5KZUQO0EN8N;;2JV21O3W5XH03321GDBYKPLTI9QBHD;1352254060;;Chrome-22;India;115.243.221.244;14;34;30;0;;0;1;67
A31A74EUH1VI3G;;2JV21O3W5XH03321GDBYKPLTI9QBHD;1352254061;;Chrome-22;United States;98.16.170.225;29;313;100;0;;0;1;127
A309BLCQJHQULO;;2JV21O3W5XH03321GDBYKPLTI9QBHD;1352254061;;Chrome-22;United States;97.103.144.202;42;69;50;69;;0;2;292
A2YKFDGF4WVI1O;;2JV21O3W5XH03321GDBYKPLTI9QBHD;1352254062;;Firefox-16;United States;98.235.170.87;37;451;488;539;;1;2;233
AXOR2N1EAFVYF;;2JV21O3W5XH03321GDBYKPLTI9QBHD;1352254062;;Chrome-22;United States;24.15.223.10;47;166;174;144;;-1;2;168
A1FRRZ7VEVQ2Y9;;2JV21O3W5XH03321GDBYKPLTI9QBHD;1352254062;;Chrome-22;United States;128.111.173.2;19;186;275;0;;-1;1;88
A1D5T2IUI9TZNB;;2JV21O3W5XH03321GDBYKPLTI9QBHD;1352254062;;Firefox-16;United States;67.168.197.62;29;171;100;0;;0;1;66
A22SZHZTF72TRM;;2JV21O3W5XH03321GDBYKPLTI9QBHD;1352254063;;Chrome-22;United States;209.23.243.42;56;407;340;342;;-1;2;455
AXPFY62AF6SMP;;2JV21O3W5XH03321GDBYKPLTI9QBHD;1352254063;;Firefox-16;United States;70.114.163.35;21;472;421;0;;-1;1;131
A15VZBRE9J8PS5;;2JV21O3W5XH03321GDBYKPLTI9QBHD;1352254063;;Firefox-16;United States;69.12.207.61;18;38;42;0;;0;1;160
A1SFZ9BHP4WSAQ;;2JV21O3W5XH03321GDBYKPLTI9QBHD;1352254063;;Firefox-16;United States;50.55.177.153;23;225;200;0;;0;1;122
A2G0HRT8HS9HRZ;;2JV21O3W5XH03321GDBYKPLTI9QBHD;1352254063;;Firefox-16;United States;67.233.58.22;2;493;500;0;;1;1;10
A3E0AY1XXP8IBQ;;2JV21O3W5XH03321GDBYKPLTI9QBHD;1352254063;;Firefox-16;United States;98.206.76.203;35;36;20;34;;-1;2;150
A38OOGMA0M6KFC;;2JV21O3W5XH03321GDBYKPLTI9QBHD;1352254063;;Chrome-22;United States;76.102.91.208;19;181;120;0;;1;1;98
A3TVDFJ22T1FFN;;2JV21O3W5XH03321GDBYKPLTI9QBHD;1352254064;;Chrome-22;India;116.202.117.215;7;382;130;0;;1;1;1
A17AMTRIYI2Z2D;;2JV21O3W5XH03321GDBYKPLTI9QBHD;1352254064;;Firefox-16;United States;184.155.19.25;14;447;300;0;;0;1;36
A2QF8NUVGZY90J;;2JV21O3W5XH03321GDBYKPLTI9QBHD;1352254064;;Firefox-16;United States;68.96.97.86;19;154;120;0;;-1;1;158
A1P5N4F97A45O1;;2JV21O3W5XH03321GDBYKPLTI9QBHD;1352254064;;Safari-6;United States;68.8.120.57;43;415;300;348;;-1;2;244
A2SYRFPPV9WDEG;;2JV21O3W5XH03321GDBYKPLTI9QBHD;1352254064;;Firefox-19;United States;66.75.77.46;25;163;750;0;;-1;1;88
A31A74EUH1VI3G;;2JV21O3W5XH03321GDBYKPLTI9QBHD;1352254064;;Chrome-22;United States;98.16.170.225;30;494;300;0;;0;1;130
A2V6SYSAA0PML1;;2JV21O3W5XH03321GDBYKPLTI9QBHD;1352254064;;Chrome-22;United States;107.15.18.40;20;16;30;0;;0;1;44
A3W3IHJVRQEHVT;;2JV21O3W5XH03321GDBYKPLTI9QBHD;1352254064;;Chrome-22;India;117.203.104.62;1;326;00000;0;;0;1;0
A325JVOWCVG3MA;;2JV21O3W5XH03321GDBYKPLTI9QBHD;1352254065;;Safari-6;United States;174.252.112.174;14;313;1000;0;;-1;1;3
A1Q8F185LEGWP9;;2JV21O3W5XH03321GDBYKPLTI9QBHD;1352254065;;Firefox-16;United States;74.235.191.63;20;75;30;0;;0;1;153
A1F14BB4PV053A;;2JV21O3W5XH03321GDBYKPLTI9QBHD;1352254065;;Firefox-14;United States;76.181.205.211;34;152;170;152;;0;2;127
A3IL7ZPRL8SU05;;2JV21O3W5XH03321GDBYKPLTI9QBHD;1352254066;;Safari-6;United States;184.1.25.30;40;315;200;267;;-1;2;319
A2AB9WEOEPG7WR;;2JV21O3W5XH03321GDBYKPLTI9QBHD;1352254066;;Chrome-22;United States;68.199.87.165;25;330;130;0;;1;1;23
A309BLCQJHQULO;;2JV21O3W5XH03321GDBYKPLTI9QBHD;1352254066;;Chrome-22;United States;97.103.144.202;43;322;300;322;;0;2;302
AXOR2N1EAFVYF;;2JV21O3W5XH03321GDBYKPLTI9QBHD;1352254066;;Chrome-22;United States;24.15.223.10;48;106;130;94;;-1;2;174
A2V1KDMAJ663EU;;2JV21O3W5XH03321GDBYKPLTI9QBHD;1352254066;;Chrome-22;United States;68.84.62.127;24;123;98;0;;1;1;178
A1D5T2IUI9TZNB;;2JV21O3W5XH03321GDBYKPLTI9QBHD;1352254067;;Firefox-16;United States;67.168.197.62;30;441;275;0;;0;1;70
A140WD05T13AVN;;2JV21O3W5XH03321GDBYKPLTI9QBHD;1352254067;;Chrome-22;United States;67.140.76.21;23;119;147;0;;0;1;119
A2YKFDGF4WVI1O;;2JV21O3W5XH03321GDBYKPLTI9QBHD;1352254067;;Firefox-16;United States;98.235.170.87;38;357;388;424;;1;2;243
A22SZHZTF72TRM;;2JV21O3W5XH03321GDBYKPLTI9QBHD;1352254067;;Chrome-22;United States;209.23.243.42;57;479;350;400;;-1;2;464
A1FRRZ7VEVQ2Y9;;2JV21O3W5XH03321GDBYKPLTI9QBHD;1352254067;;Chrome-22;United States;128.111.173.2;20;30;20;0;;-1;1;93
A1P5N4F97A45O1;;2JV21O3W5XH03321GDBYKPLTI9QBHD;1352254068;;Safari-6;United States;68.8.120.57;44;225;200;193;;-1;2;254
A15VZBRE9J8PS5;;2JV21O3W5XH03321GDBYKPLTI9QBHD;1352254068;;Firefox-16;United States;69.12.207.61;19;79;88;0;;0;1;170
A3E0AY1XXP8IBQ;;2JV21O3W5XH03321GDBYKPLTI9QBHD;1352254068;;Firefox-16;United States;98.206.76.203;36;426;400;357;;-1;2;159
A38OOGMA0M6KFC;;2JV21O3W5XH03321GDBYKPLTI9QBHD;1352254068;;Chrome-22;United States;76.102.91.208;20;154;95;0;;1;1;102
A1SFZ9BHP4WSAQ;;2JV21O3W5XH03321GDBYKPLTI9QBHD;1352254069;;Firefox-16;United States;50.55.177.153;24;45;30;0;;0;1;127
A23JZKX95M40CY;;2JV21O3W5XH03321GDBYKPLTI9QBHD;1352254069;;Chrome-22;United States;98.154.17.0;1;392;45;0;;0;1;0
A2V6SYSAA0PML1;;2JV21O3W5XH03321GDBYKPLTI9QBHD;1352254069;;Chrome-22;United States;107.15.18.40;21;185;69;0;;0;1;44
A1D5T2IUI9TZNB;;2JV21O3W5XH03321GDBYKPLTI9QBHD;1352254070;;Firefox-16;United States;67.168.197.62;31;402;300;402;;0;2;77
AXOR2N1EAFVYF;;2JV21O3W5XH03321GDBYKPLTI9QBHD;1352254070;;Chrome-22;United States;24.15.223.10;49;378;200;318;;-1;2;178
A1F14BB4PV053A;;2JV21O3W5XH03321GDBYKPLTI9QBHD;1352254070;;Firefox-14;United States;76.181.205.211;35;284;225;284;;0;2;135
A31A74EUH1VI3G;;2JV21O3W5XH03321GDBYKPLTI9QBHD;1352254070;;Chrome-22;United States;98.16.170.225;31;73;20;73;;0;2;130
A3IL7ZPRL8SU05;;2JV21O3W5XH03321GDBYKPLTI9QBHD;1352254070;;Safari-6;United States;184.1.25.30;41;187;210;162;;-1;2;326
A1Q8F185LEGWP9;;2JV21O3W5XH03321GDBYKPLTI9QBHD;1352254070;;Firefox-16;United States;74.235.191.63;21;227;300;0;;0;1;160
A17AMTRIYI2Z2D;;2JV21O3W5XH03321GDBYKPLTI9QBHD;1352254070;;Firefox-16;United States;184.155.19.25;15;120;175;0;;0;1;41
A309BLCQJHQULO;;2JV21O3W5XH03321GDBYKPLTI9QBHD;1352254071;;Chrome-22;United States;97.103.144.202;44;28;50;28;;0;2;304
A3TVDFJ22T1FFN;;2JV21O3W5XH03321GDBYKPLTI9QBHD;1352254071;;Chrome-22;India;116.202.117.215;8;11;13;0;;1;1;10
AXPFY62AF6SMP;;2JV21O3W5XH03321GDBYKPLTI9QBHD;1352254071;;Firefox-16;United States;70.114.163.35;22;148;220;0;;-1;1;136
A2AB9WEOEPG7WR;;2JV21O3W5XH03321GDBYKPLTI9QBHD;1352254071;;Chrome-22;United States;68.199.87.165;26;46;12;0;;1;1;23
A1P5N4F97A45O1;;2JV21O3W5XH03321GDBYKPLTI9QBHD;1352254071;;Safari-6;United States;68.8.120.57;45;369;300;311;;-1;2;264
A2SYRFPPV9WDEG;;2JV21O3W5XH03321GDBYKPLTI9QBHD;1352254071;;Firefox-19;United States;66.75.77.46;26;276;800;0;;-1;1;88
A325JVOWCVG3MA;;2JV21O3W5XH03321GDBYKPLTI9QBHD;1352254072;;Safari-6;United States;174.252.112.174;15;478;500;0;;-1;1;13
A2V1KDMAJ663EU;;2JV21O3W5XH03321GDBYKPLTI9QBHD;1352254072;;Chrome-22;United States;68.84.62.127;25;55;30;0;;1;1;180
A2QF8NUVGZY90J;;2JV21O3W5XH03321GDBYKPLTI9QBHD;1352254072;;Firefox-16;United States;68.96.97.86;20;41;60;0;;-1;1;163
A1FRRZ7VEVQ2Y9;;2JV21O3W5XH03321GDBYKPLTI9QBHD;1352254072;;Chrome-22;United States;128.111.173.2;21;472;900;0;;-1;1;95
A3J5KZUQO0EN8N;;2JV21O3W5XH03321GDBYKPLTI9QBHD;1352254072;;Chrome-22;India;115.243.221.244;15;450;180;0;;0;1;67
A3W3IHJVRQEHVT;;2JV21O3W5XH03321GDBYKPLTI9QBHD;1352254073;;Chrome-22;India;117.203.104.62;2;425;0;0;;0;1;0
A140WD05T13AVN;;2JV21O3W5XH03321GDBYKPLTI9QBHD;1352254073;;Chrome-22;United States;67.140.76.21;24;128;155;0;;0;1;128
A39RBYX03I6A51;;2JV21O3W5XH03321GDBYKPLTI9QBHD;1352254073;;Chrome-8;India;180.215.8.191;22;83;890;0;;1;1;30
A22SZHZTF72TRM;;2JV21O3W5XH03321GDBYKPLTI9QBHD;1352254073;;Chrome-22;United States;209.23.243.42;58;272;330;232;;-1;2;470
A2YKFDGF4WVI1O;;2JV21O3W5XH03321GDBYKPLTI9QBHD;1352254073;;Firefox-16;United States;98.235.170.87;39;338;399;400;;1;2;253
A38OOGMA0M6KFC;;2JV21O3W5XH03321GDBYKPLTI9QBHD;1352254073;;Chrome-22;United States;76.102.91.208;21;334;150;0;;1;1;103
A2G0HRT8HS9HRZ;;2JV21O3W5XH03321GDBYKPLTI9QBHD;1352254074;;Firefox-16;United States;67.233.58.22;3;339;300;0;;1;1;19
A23JZKX95M40CY;;2JV21O3W5XH03321GDBYKPLTI9QBHD;1352254074;;Chrome-22;United States;98.154.17.0;2;382;90;0;;0;1;0
AXOR2N1EAFVYF;;2JV21O3W5XH03321GDBYKPLTI9QBHD;1352254074;;Chrome-22;United States;24.15.223.10;50;274;310;233;;-1;2;185
A1P5N4F97A45O1;;2JV21O3W5XH03321GDBYKPLTI9QBHD;1352254074;;Safari-6;United States;68.8.120.57;46;300;300;255;;-1;2;273
A1Q8F185LEGWP9;;2JV21O3W5XH03321GDBYKPLTI9QBHD;1352254075;;Firefox-16;United States;74.235.191.63;22;364;400;0;;0;1;170
A3IL7ZPRL8SU05;;2JV21O3W5XH03321GDBYKPLTI9QBHD;1352254075;;Safari-6;United States;184.1.25.30;42;68;140;61;;-1;2;326
A1F14BB4PV053A;;2JV21O3W5XH03321GDBYKPLTI9QBHD;1352254075;;Firefox-14;United States;76.181.205.211;36;459;350;459;;0;2;142
A1SFZ9BHP4WSAQ;;2JV21O3W5XH03321GDBYKPLTI9QBHD;1352254075;;Firefox-16;United States;50.55.177.153;25;71;50;0;;0;1;133
A2SYRFPPV9WDEG;;2JV21O3W5XH03321GDBYKPLTI9QBHD;1352254075;;Firefox-19;United States;66.75.77.46;27;194;400;0;;-1;1;89
A1D5T2IUI9TZNB;;2JV21O3W5XH03321GDBYKPLTI9QBHD;1352254076;;Firefox-16;United States;67.168.197.62;32;108;200;108;;0;2;79
A3E0AY1XXP8IBQ;;2JV21O3W5XH03321GDBYKPLTI9QBHD;1352254076;;Firefox-16;United States;98.206.76.203;37;107;50;95;;-1;2;161
A309BLCQJHQULO;;2JV21O3W5XH03321GDBYKPLTI9QBHD;1352254076;;Chrome-22;United States;97.103.144.202;45;396;300;396;;0;2;311
A15VZBRE9J8PS5;;2JV21O3W5XH03321GDBYKPLTI9QBHD;1352254076;;Firefox-16;United States;69.12.207.61;20;382;515;0;;0;1;177
A2V6SYSAA0PML1;;2JV21O3W5XH03321GDBYKPLTI9QBHD;1352254076;;Chrome-22;United States;107.15.18.40;22;414;99;0;;0;1;44
A2V1KDMAJ663EU;;2JV21O3W5XH03321GDBYKPLTI9QBHD;1352254077;;Chrome-22;United States;68.84.62.127;26;322;300;0;;1;1;190
A17AMTRIYI2Z2D;;2JV21O3W5XH03321GDBYKPLTI9QBHD;1352254077;;Firefox-16;United States;184.155.19.25;16;439;275;0;;0;1;45
A1FRRZ7VEVQ2Y9;;2JV21O3W5XH03321GDBYKPLTI9QBHD;1352254078;;Chrome-22;United States;128.111.173.2;22;374;900;0;;-1;1;95
A1P5N4F97A45O1;;2JV21O3W5XH03321GDBYKPLTI9QBHD;1352254078;;Safari-6;United States;68.8.120.57;47;427;300;358;;-1;2;282
A2AB9WEOEPG7WR;;2JV21O3W5XH03321GDBYKPLTI9QBHD;1352254078;;Chrome-22;United States;68.199.87.165;27;439;1689;0;;1;1;23
AXPFY62AF6SMP;;2JV21O3W5XH03321GDBYKPLTI9QBHD;1352254078;;Firefox-16;United States;70.114.163.35;23;231;315;0;;-1;1;143
A3TVDFJ22T1FFN;;2JV21O3W5XH03321GDBYKPLTI9QBHD;1352254078;;Chrome-22;India;116.202.117.215;9;44;25;0;;1;1;12
AXOR2N1EAFVYF;;2JV21O3W5XH03321GDBYKPLTI9QBHD;1352254079;;Chrome-22;United States;24.15.223.10;51;500;350;417;;-1;2;194
A31A74EUH1VI3G;;2JV21O3W5XH03321GDBYKPLTI9QBHD;1352254079;;Chrome-22;United States;98.16.170.225;32;443;500;443;;0;2;139
A23JZKX95M40CY;;2JV21O3W5XH03321GDBYKPLTI9QBHD;1352254079;;Chrome-22;United States;98.154.17.0;3;393;123;0;;0;1;0
A325JVOWCVG3MA;;2JV21O3W5XH03321GDBYKPLTI9QBHD;1352254079;;Safari-6;United States;174.252.112.174;16;64;0;0;;-1;1;13
A22SZHZTF72TRM;;2JV21O3W5XH03321GDBYKPLTI9QBHD;1352254079;;Chrome-22;United States;209.23.243.42;59;142;200;124;;-1;2;474
A2YKFDGF4WVI1O;;2JV21O3W5XH03321GDBYKPLTI9QBHD;1352254080;;Firefox-16;United States;98.235.170.87;40;269;288;316;;1;2;263
A3W3IHJVRQEHVT;;2JV21O3W5XH03321GDBYKPLTI9QBHD;1352254080;;Chrome-22;India;117.203.104.62;3;201;100;0;;0;1;1
A1F14BB4PV053A;;2JV21O3W5XH03321GDBYKPLTI9QBHD;1352254081;;Firefox-14;United States;76.181.205.211;37;458;459;458;;0;2;152
A2QF8NUVGZY90J;;2JV21O3W5XH03321GDBYKPLTI9QBHD;1352254081;;Firefox-16;United States;68.96.97.86;21;386;287;0;;-1;1;170
A3J5KZUQO0EN8N;;2JV21O3W5XH03321GDBYKPLTI9QBHD;1352254081;;Chrome-22;India;115.243.221.244;16;242;100;0;;0;1;67
A3IL7ZPRL8SU05;;2JV21O3W5XH03321GDBYKPLTI9QBHD;1352254081;;Safari-6;United States;184.1.25.30;43;294;200;250;;-1;2;334
A1P5N4F97A45O1;;2JV21O3W5XH03321GDBYKPLTI9QBHD;1352254082;;Safari-6;United States;68.8.120.57;47;427;300;358;;-1;2;282
A2G0HRT8HS9HRZ;;2JV21O3W5XH03321GDBYKPLTI9QBHD;1352254082;;Firefox-16;United States;67.233.58.22;4;394;400;0;;1;1;29
A2SYRFPPV9WDEG;;2JV21O3W5XH03321GDBYKPLTI9QBHD;1352254082;;Firefox-19;United States;66.75.77.46;28;119;250;0;;-1;1;90
A38OOGMA0M6KFC;;2JV21O3W5XH03321GDBYKPLTI9QBHD;1352254082;;Chrome-22;United States;76.102.91.208;22;418;220;0;;1;1;105
A140WD05T13AVN;;2JV21O3W5XH03321GDBYKPLTI9QBHD;1352254082;;Chrome-22;United States;67.140.76.21;25;352;299;0;;0;1;137
A39RBYX03I6A51;;2JV21O3W5XH03321GDBYKPLTI9QBHD;1352254082;;Chrome-8;India;180.215.8.191;23;78;8990;0;;1;1;30
A1Q8F185LEGWP9;;2JV21O3W5XH03321GDBYKPLTI9QBHD;1352254083;;Firefox-16;United States;74.235.191.63;23;310;450;0;;0;1;175
A1SFZ9BHP4WSAQ;;2JV21O3W5XH03321GDBYKPLTI9QBHD;1352254084;;Firefox-16;United States;50.55.177.153;26;429;340;0;;0;1;141
AXOR2N1EAFVYF;;2JV21O3W5XH03321GDBYKPLTI9QBHD;1352254086;;Chrome-22;United States;24.15.223.10;52;470;400;393;;-1;2;204
A3E0AY1XXP8IBQ;;2JV21O3W5XH03321GDBYKPLTI9QBHD;1352254086;;Firefox-16;United States;98.206.76.203;38;272;400;232;;-1;2;164
A309BLCQJHQULO;;2JV21O3W5XH03321GDBYKPLTI9QBHD;1352254087;;Chrome-22;United States;97.103.144.202;46;403;300;403;;0;2;318
A3IL7ZPRL8SU05;;2JV21O3W5XH03321GDBYKPLTI9QBHD;1352254087;;Safari-6;United States;184.1.25.30;44;213;200;183;;-1;2;344
A22SZHZTF72TRM;;2JV21O3W5XH03321GDBYKPLTI9QBHD;1352254087;;Chrome-22;United States;209.23.243.42;60;120;120;106;;-1;2;483
A1FRRZ7VEVQ2Y9;;2JV21O3W5XH03321GDBYKPLTI9QBHD;1352254087;;Chrome-22;United States;128.111.173.2;23;88;30;0;;-1;1;95
A2V6SYSAA0PML1;;2JV21O3W5XH03321GDBYKPLTI9QBHD;1352254087;;Chrome-22;United States;107.15.18.40;23;293;78;0;;0;1;44
A2AB9WEOEPG7WR;;2JV21O3W5XH03321GDBYKPLTI9QBHD;1352254088;;Chrome-22;United States;68.199.87.165;28;480;168;0;;1;1;23
A31A74EUH1VI3G;;2JV21O3W5XH03321GDBYKPLTI9QBHD;1352254088;;Chrome-22;United States;98.16.170.225;33;343;400;343;;0;2;148
A1D5T2IUI9TZNB;;2JV21O3W5XH03321GDBYKPLTI9QBHD;1352254088;;Firefox-16;United States;67.168.197.62;33;130;175;130;;0;2;86
A1P5N4F97A45O1;;2JV21O3W5XH03321GDBYKPLTI9QBHD;1352254088;;Safari-6;United States;68.8.120.57;48;53;90;48;;-1;2;284
A2V1KDMAJ663EU;;2JV21O3W5XH03321GDBYKPLTI9QBHD;1352254088;;Chrome-22;United States;68.84.62.127;27;255;222;0;;1;1;199
A2YKFDGF4WVI1O;;2JV21O3W5XH03321GDBYKPLTI9QBHD;1352254089;;Firefox-16;United States;98.235.170.87;41;438;358;523;;1;2;268
A17AMTRIYI2Z2D;;2JV21O3W5XH03321GDBYKPLTI9QBHD;1352254089;;Firefox-16;United States;184.155.19.25;17;425;300;0;;0;1;51
A1Q8F185LEGWP9;;2JV21O3W5XH03321GDBYKPLTI9QBHD;1352254089;;Firefox-16;United States;74.235.191.63;24;450;400;0;;0;1;184
A3W3IHJVRQEHVT;;2JV21O3W5XH03321GDBYKPLTI9QBHD;1352254089;;Chrome-22;India;117.203.104.62;4;80;52;0;;0;1;5
A1F14BB4PV053A;;2JV21O3W5XH03321GDBYKPLTI9QBHD;1352254089;;Firefox-14;United States;76.181.205.211;38;355;475;355;;0;2;159
AXPFY62AF6SMP;;2JV21O3W5XH03321GDBYKPLTI9QBHD;1352254089;;Firefox-16;United States;70.114.163.35;24;221;374;0;;-1;1;146
A15VZBRE9J8PS5;;2JV21O3W5XH03321GDBYKPLTI9QBHD;1352254089;;Firefox-16;United States;69.12.207.61;21;79;75;0;;0;1;187
AXOR2N1EAFVYF;;2JV21O3W5XH03321GDBYKPLTI9QBHD;1352254089;;Chrome-22;United States;24.15.223.10;53;305;400;259;;-1;2;208
