0.workerId	assignmentId	hitId	0.curtime	OSName	browserName	0.country	IP	trialn	shown	response	feedback	responseTime	fbcondition	phase	scoreAXPFY62AF6SMP	1	2JV21O3W5XH03321GDBYKPLTI9QBHD	1352253926		Firefox-16	United States	70.114.163.35	1	464	102	0		-1	1	0AXPFY62AF6SMP	1	2JV21O3W5XH03321GDBYKPLTI9QBHD	1352253934		Firefox-16	United States	70.114.163.35	2	341	430	0		-1	1	8AXPFY62AF6SMP	1	2JV21O3W5XH03321GDBYKPLTI9QBHD	1352253943		Firefox-16	United States	70.114.163.35	3	272	390	0		-1	1	14AXPFY62AF6SMP	1	2JV21O3W5XH03321GDBYKPLTI9QBHD	1352253949		Firefox-16	United States	70.114.163.35	4	451	546	0		-1	1	23AXPFY62AF6SMP	1	2JV21O3W5XH03321GDBYKPLTI9QBHD	1352253957		Firefox-16	United States	70.114.163.35	5	349	502	0		-1	1	29AXPFY62AF6SMP	1	2JV21O3W5XH03321GDBYKPLTI9QBHD	1352253963		Firefox-16	United States	70.114.163.35	6	163	302	0		-1	1	31AXPFY62AF6SMP	1	2JV21O3W5XH03321GDBYKPLTI9QBHD	1352253969		Firefox-16	United States	70.114.163.35	7	178	198	0		-1	1	41AXPFY62AF6SMP	1	2JV21O3W5XH03321GDBYKPLTI9QBHD	1352253975		Firefox-16	United States	70.114.163.35	8	499	358	0		-1	1	47AXPFY62AF6SMP	1	2JV21O3W5XH03321GDBYKPLTI9QBHD	1352253981		Firefox-16	United States	70.114.163.35	9	221	299	0		-1	1	54AXPFY62AF6SMP	1	2JV21O3W5XH03321GDBYKPLTI9QBHD	1352253986		Firefox-16	United States	70.114.163.35	10	63	52	0		-1	1	63AXPFY62AF6SMP	1	2JV21O3W5XH03321GDBYKPLTI9QBHD	1352253994		Firefox-16	United States	70.114.163.35	11	475	535	0		-1	1	72AXPFY62AF6SMP	1	2JV21O3W5XH03321GDBYKPLTI9QBHD	1352253999		Firefox-16	United States	70.114.163.35	12	468	670	0		-1	1	78AXPFY62AF6SMP	1	2JV21O3W5XH03321GDBYKPLTI9QBHD	1352254005		Firefox-16	United States	70.114.163.35	13	316	480	0		-1	1	83AXPFY62AF6SMP	1	2JV21O3W5XH03321GDBYKPLTI9QBHD	1352254013		Firefox-16	United States	70.114.163.35	14	11	20	0		-1	1	85AXPFY62AF6SMP	1	2JV21O3W5XH03321GDBYKPLTI9QBHD	1352254021		Firefox-16	United States	70.114.163.35	15	98	67	0		-1	1	90AXPFY62AF6SMP	1	2JV21O3W5XH03321GDBYKPLTI9QBHD	1352254026		Firefox-16	United States	70.114.163.35	16	73	54	0		-1	1	97AXPFY62AF6SMP	1	2JV21O3W5XH03321GDBYKPLTI9QBHD	1352254033		Firefox-16	United States	70.114.163.35	17	478	352	0		-1	1	104AXPFY62AF6SMP	1	2JV21O3W5XH03321GDBYKPLTI9QBHD	1352254040		Firefox-16	United States	70.114.163.35	18	368	500	0		-1	1	111AXPFY62AF6SMP	1	2JV21O3W5XH03321GDBYKPLTI9QBHD	1352254051		Firefox-16	United States	70.114.163.35	19	39	61	0		-1	1	115AXPFY62AF6SMP	1	2JV21O3W5XH03321GDBYKPLTI9QBHD	1352254057		Firefox-16	United States	70.114.163.35	20	139	180	0		-1	1	122AXPFY62AF6SMP	1	2JV21O3W5XH03321GDBYKPLTI9QBHD	1352254063		Firefox-16	United States	70.114.163.35	21	472	421	0		-1	1	131AXPFY62AF6SMP	1	2JV21O3W5XH03321GDBYKPLTI9QBHD	1352254071		Firefox-16	United States	70.114.163.35	22	148	220	0		-1	1	136AXPFY62AF6SMP	1	2JV21O3W5XH03321GDBYKPLTI9QBHD	1352254078		Firefox-16	United States	70.114.163.35	23	231	315	0		-1	1	143AXPFY62AF6SMP	1	2JV21O3W5XH03321GDBYKPLTI9QBHD	1352254089		Firefox-16	United States	70.114.163.35	24	221	374	0		-1	1	146AXPFY62AF6SMP	1	2JV21O3W5XH03321GDBYKPLTI9QBHD	1352254096		Firefox-16	United States	70.114.163.35	25	243	270	0		-1	1	156AXPFY62AF6SMP	1	2JV21O3W5XH03321GDBYKPLTI9QBHD	1352254102		Firefox-16	United States	70.114.163.35	26	138	165	0		-1	1	165AXPFY62AF6SMP	1	2JV21O3W5XH03321GDBYKPLTI9QBHD	1352254109		Firefox-16	United States	70.114.163.35	27	224	280	0		-1	1	173AXPFY62AF6SMP	1	2JV21O3W5XH03321GDBYKPLTI9QBHD	1352254116		Firefox-16	United States	70.114.163.35	28	287	325	0		-1	1	182AXPFY62AF6SMP	1	2JV21O3W5XH03321GDBYKPLTI9QBHD	1352254123		Firefox-16	United States	70.114.163.35	29	284	400	0		-1	1	188AXPFY62AF6SMP	1	2JV21O3W5XH03321GDBYKPLTI9QBHD	1352254130		Firefox-16	United States	70.114.163.35	30	468	420	0		-1	1	198AXPFY62AF6SMP	1	2JV21O3W5XH03321GDBYKPLTI9QBHD	1352254138		Firefox-16	United States	70.114.163.35	31	473	340	395		-1	2	207AXPFY62AF6SMP	1	2JV21O3W5XH03321GDBYKPLTI9QBHD	1352254146		Firefox-16	United States	70.114.163.35	32	60	49	54		-1	2	217AXPFY62AF6SMP	1	2JV21O3W5XH03321GDBYKPLTI9QBHD	1352254154		Firefox-16	United States	70.114.163.35	33	193	189	167		-1	2	226AXPFY62AF6SMP	1	2JV21O3W5XH03321GDBYKPLTI9QBHD	1352254160		Firefox-16	United States	70.114.163.35	34	144	140	126		-1	2	236AXPFY62AF6SMP	1	2JV21O3W5XH03321GDBYKPLTI9QBHD	1352254167		Firefox-16	United States	70.114.163.35	35	88	98	78		-1	2	244AXPFY62AF6SMP	1	2JV21O3W5XH03321GDBYKPLTI9QBHD	1352254176		Firefox-16	United States	70.114.163.35	36	479	240	400		-1	2	247AXPFY62AF6SMP	1	2JV21O3W5XH03321GDBYKPLTI9QBHD	1352254182		Firefox-16	United States	70.114.163.35	37	479	300	400		-1	2	254AXPFY62AF6SMP	1	2JV21O3W5XH03321GDBYKPLTI9QBHD	1352254188		Firefox-16	United States	70.114.163.35	38	100	202	89		-1	2	255AXPFY62AF6SMP	1	2JV21O3W5XH03321GDBYKPLTI9QBHD	1352254193		Firefox-16	United States	70.114.163.35	39	331	170	280		-1	2	258AXPFY62AF6SMP	1	2JV21O3W5XH03321GDBYKPLTI9QBHD	1352254198		Firefox-16	United States	70.114.163.35	40	145	150	127		-1	2	267AXPFY62AF6SMP	1	2JV21O3W5XH03321GDBYKPLTI9QBHD	1352254203		Firefox-16	United States	70.114.163.35	41	321	179	272		-1	2	272AXPFY62AF6SMP	1	2JV21O3W5XH03321GDBYKPLTI9QBHD	1352254210		Firefox-16	United States	70.114.163.35	42	154	140	134		-1	2	282AXPFY62AF6SMP	1	2JV21O3W5XH03321GDBYKPLTI9QBHD	1352254217		Firefox-16	United States	70.114.163.35	43	176	187	152		-1	2	290AXPFY62AF6SMP	1	2JV21O3W5XH03321GDBYKPLTI9QBHD	1352254223		Firefox-16	United States	70.114.163.35	44	397	252	334		-1	2	297AXPFY62AF6SMP	1	2JV21O3W5XH03321GDBYKPLTI9QBHD	1352254228		Firefox-16	United States	70.114.163.35	45	140	242	122		-1	2	298AXPFY62AF6SMP	1	2JV21O3W5XH03321GDBYKPLTI9QBHD	1352254234		Firefox-16	United States	70.114.163.35	46	209	230	180		-1	2	306AXPFY62AF6SMP	1	2JV21O3W5XH03321GDBYKPLTI9QBHD	1352254240		Firefox-16	United States	70.114.163.35	47	430	280	360		-1	2	314AXPFY62AF6SMP	1	2JV21O3W5XH03321GDBYKPLTI9QBHD	1352254247		Firefox-16	United States	70.114.163.35	48	332	270	281		-1	2	324AXPFY62AF6SMP	1	2JV21O3W5XH03321GDBYKPLTI9QBHD	1352254255		Firefox-16	United States	70.114.163.35	49	81	103	72		-1	2	330AXPFY62AF6SMP	1	2JV21O3W5XH03321GDBYKPLTI9QBHD	1352254260		Firefox-16	United States	70.114.163.35	50	61	53	55		-1	2	340AXPFY62AF6SMP	1	2JV21O3W5XH03321GDBYKPLTI9QBHD	1352254269		Firefox-16	United States	70.114.163.35	51	309	146	262		-1	2	342AXPFY62AF6SMP	1	2JV21O3W5XH03321GDBYKPLTI9QBHD	1352254274		Firefox-16	United States	70.114.163.35	52	229	190	196		-1	2	352AXPFY62AF6SMP	1	2JV21O3W5XH03321GDBYKPLTI9QBHD	1352254279		Firefox-16	United States	70.114.163.35	53	449	270	376		-1	2	358AXPFY62AF6SMP	1	2JV21O3W5XH03321GDBYKPLTI9QBHD	1352254284		Firefox-16	United States	70.114.163.35	54	224	240	192		-1	2	366AXPFY62AF6SMP	1	2JV21O3W5XH03321GDBYKPLTI9QBHD	1352254290		Firefox-16	United States	70.114.163.35	55	172	160	149		-1	2	376AXPFY62AF6SMP	1	2JV21O3W5XH03321GDBYKPLTI9QBHD	1352254295		Firefox-16	United States	70.114.163.35	56	421	190	353		-1	2	378AXPFY62AF6SMP	1	2JV21O3W5XH03321GDBYKPLTI9QBHD	1352254301		Firefox-16	United States	70.114.163.35	57	439	370	368		-1	2	388AXPFY62AF6SMP	1	2JV21O3W5XH03321GDBYKPLTI9QBHD	1352254308		Firefox-16	United States	70.114.163.35	58	469	355	392		-1	2	398AXPFY62AF6SMP	1	2JV21O3W5XH03321GDBYKPLTI9QBHD	1352254314		Firefox-16	United States	70.114.163.35	59	231	190	198		-1	2	408AXPFY62AF6SMP	1	2JV21O3W5XH03321GDBYKPLTI9QBHD	1352254318		Firefox-16	United States	70.114.163.35	60	305	210	259		-1	2	416AXPFY62AF6SMP	1	2JV21O3W5XH03321GDBYKPLTI9QBHD	1352254324		Firefox-16	United States	70.114.163.35	61	186	170	0		-1	3	426AXPFY62AF6SMP	1	2JV21O3W5XH03321GDBYKPLTI9QBHD	1352254331		Firefox-16	United States	70.114.163.35	62	385	209	0		-1	3	428AXPFY62AF6SMP	1	2JV21O3W5XH03321GDBYKPLTI9QBHD	1352254337		Firefox-16	United States	70.114.163.35	63	472	390	0		-1	3	437AXPFY62AF6SMP	1	2JV21O3W5XH03321GDBYKPLTI9QBHD	1352254342		Firefox-16	United States	70.114.163.35	64	371	270	0		-1	3	443AXPFY62AF6SMP	1	2JV21O3W5XH03321GDBYKPLTI9QBHD	1352254349		Firefox-16	United States	70.114.163.35	65	267	245	0		-1	3	453AXPFY62AF6SMP	1	2JV21O3W5XH03321GDBYKPLTI9QBHD	1352254354		Firefox-16	United States	70.114.163.35	66	466	380	0		-1	3	461AXPFY62AF6SMP	1	2JV21O3W5XH03321GDBYKPLTI9QBHD	1352254360		Firefox-16	United States	70.114.163.35	67	127	140	0		-1	3	471AXPFY62AF6SMP	1	2JV21O3W5XH03321GDBYKPLTI9QBHD	1352254366		Firefox-16	United States	70.114.163.35	68	286	190	0		-1	3	476AXPFY62AF6SMP	1	2JV21O3W5XH03321GDBYKPLTI9QBHD	1352254375		Firefox-16	United States	70.114.163.35	69	366	320	0		-1	3	485AXPFY62AF6SMP	1	2JV21O3W5XH03321GDBYKPLTI9QBHD	1352254379		Firefox-16	United States	70.114.163.35	70	418	310	0		-1	3	492AXPFY62AF6SMP	1	2JV21O3W5XH03321GDBYKPLTI9QBHD	1352254385		Firefox-16	United States	70.114.163.35	71	163	170	0		-1	3	502AXPFY62AF6SMP	1	2JV21O3W5XH03321GDBYKPLTI9QBHD	1352254389		Firefox-16	United States	70.114.163.35	72	97	89	0		-1	3	512AXPFY62AF6SMP	1	2JV21O3W5XH03321GDBYKPLTI9QBHD	1352254395		Firefox-16	United States	70.114.163.35	73	183	150	0		-1	3	520AXPFY62AF6SMP	1	2JV21O3W5XH03321GDBYKPLTI9QBHD	1352254401		Firefox-16	United States	70.114.163.35	74	494	299	0		-1	3	523AXPFY62AF6SMP	1	2JV21O3W5XH03321GDBYKPLTI9QBHD	1352254405		Firefox-16	United States	70.114.163.35	75	86	109	0		-1	3	531AXPFY62AF6SMP	1	2JV21O3W5XH03321GDBYKPLTI9QBHD	1352254410		Firefox-16	United States	70.114.163.35	76	484	320	0		-1	3	536AXPFY62AF6SMP	1	2JV21O3W5XH03321GDBYKPLTI9QBHD	1352254415		Firefox-16	United States	70.114.163.35	77	458	409	0		-1	3	545AXPFY62AF6SMP	1	2JV21O3W5XH03321GDBYKPLTI9QBHD	1352254422		Firefox-16	United States	70.114.163.35	78	305	330	0		-1	3	555AXPFY62AF6SMP	1	2JV21O3W5XH03321GDBYKPLTI9QBHD	1352254427		Firefox-16	United States	70.114.163.35	79	132	192	0		-1	3	560AXPFY62AF6SMP	1	2JV21O3W5XH03321GDBYKPLTI9QBHD	1352254433		Firefox-16	United States	70.114.163.35	80	29	67	0		-1	3	560AXPFY62AF6SMP	1	2JV21O3W5XH03321GDBYKPLTI9QBHD	1352254438		Firefox-16	United States	70.114.163.35	81	432	210	0		-1	3	561AXPFY62AF6SMP	1	2JV21O3W5XH03321GDBYKPLTI9QBHD	1352254443		Firefox-16	United States	70.114.163.35	82	373	310	0		-1	3	570AXPFY62AF6SMP	1	2JV21O3W5XH03321GDBYKPLTI9QBHD	1352254448		Firefox-16	United States	70.114.163.35	83	27	100	0		-1	3	570AXPFY62AF6SMP	1	2JV21O3W5XH03321GDBYKPLTI9QBHD	1352254453		Firefox-16	United States	70.114.163.35	84	255	209	0		-1	3	578AXPFY62AF6SMP	1	2JV21O3W5XH03321GDBYKPLTI9QBHD	1352254458		Firefox-16	United States	70.114.163.35	85	302	300	0		-1	3	588AXPFY62AF6SMP	1	2JV21O3W5XH03321GDBYKPLTI9QBHD	1352254464		Firefox-16	United States	70.114.163.35	86	200	280	0		-1	3	594AXPFY62AF6SMP	1	2JV21O3W5XH03321GDBYKPLTI9QBHD	1352254469		Firefox-16	United States	70.114.163.35	87	436	409	0		-1	3	604AXPFY62AF6SMP	1	2JV21O3W5XH03321GDBYKPLTI9QBHD	1352254474		Firefox-16	United States	70.114.163.35	88	74	120	0		-1	3	608AXPFY62AF6SMP	1	2JV21O3W5XH03321GDBYKPLTI9QBHD	1352254479		Firefox-16	United States	70.114.163.35	89	485	390	0		-1	3	616AXPFY62AF6SMP	1	2JV21O3W5XH03321GDBYKPLTI9QBHD	1352254485		Firefox-16	United States	70.114.163.35	90	33	68	0		-1	3	617AXPFY62AF6SMP	1	2JV21O3W5XH03321GDBYKPLTI9QBHD	1352254492		Firefox-16	United States	70.114.163.35	91	321	350	0		-1	0	627AXOR2N1EAFVYF	2	2JV21O3W5XH03321GDBYKPLTI9QBHD	1352253861		Chrome-22	United States	24.15.223.10	1	92	80	0		-1	1	9AXOR2N1EAFVYF	2	2JV21O3W5XH03321GDBYKPLTI9QBHD	1352253866		Chrome-22	United States	24.15.223.10	2	223	150	0		-1	1	14AXOR2N1EAFVYF	2	2JV21O3W5XH03321GDBYKPLTI9QBHD	1352253872		Chrome-22	United States	24.15.223.10	3	381	200	0		-1	1	16AXOR2N1EAFVYF	2	2JV21O3W5XH03321GDBYKPLTI9QBHD	1352253879		Chrome-22	United States	24.15.223.10	4	378	115	0		-1	1	16AXOR2N1EAFVYF	2	2JV21O3W5XH03321GDBYKPLTI9QBHD	1352253883		Chrome-22	United States	24.15.223.10	5	104	30	0		-1	1	16AXOR2N1EAFVYF	2	2JV21O3W5XH03321GDBYKPLTI9QBHD	1352253889		Chrome-22	United States	24.15.223.10	6	444	90	0		-1	1	16AXOR2N1EAFVYF	2	2JV21O3W5XH03321GDBYKPLTI9QBHD	1352253893		Chrome-22	United States	24.15.223.10	7	358	100	0		-1	1	16AXOR2N1EAFVYF	2	2JV21O3W5XH03321GDBYKPLTI9QBHD	1352253899		Chrome-22	United States	24.15.223.10	8	85	50	0		-1	1	19AXOR2N1EAFVYF	2	2JV21O3W5XH03321GDBYKPLTI9QBHD	1352253904		Chrome-22	United States	24.15.223.10	9	460	200	0		-1	1	19AXOR2N1EAFVYF	2	2JV21O3W5XH03321GDBYKPLTI9QBHD	1352253908		Chrome-22	United States	24.15.223.10	10	265	150	0		-1	1	21AXOR2N1EAFVYF	2	2JV21O3W5XH03321GDBYKPLTI9QBHD	1352253913		Chrome-22	United States	24.15.223.10	11	498	250	0		-1	1	22AXOR2N1EAFVYF	2	2JV21O3W5XH03321GDBYKPLTI9QBHD	1352253917		Chrome-22	United States	24.15.223.10	12	245	100	0		-1	1	22AXOR2N1EAFVYF	2	2JV21O3W5XH03321GDBYKPLTI9QBHD	1352253921		Chrome-22	United States	24.15.223.10	13	341	150	0		-1	1	23AXOR2N1EAFVYF	2	2JV21O3W5XH03321GDBYKPLTI9QBHD	1352253924		Chrome-22	United States	24.15.223.10	14	357	150	0		-1	1	23AXOR2N1EAFVYF	2	2JV21O3W5XH03321GDBYKPLTI9QBHD	1352253929		Chrome-22	United States	24.15.223.10	15	130	75	0		-1	1	26AXOR2N1EAFVYF	2	2JV21O3W5XH03321GDBYKPLTI9QBHD	1352253933		Chrome-22	United States	24.15.223.10	16	132	75	0		-1	1	28AXOR2N1EAFVYF	2	2JV21O3W5XH03321GDBYKPLTI9QBHD	1352253937		Chrome-22	United States	24.15.223.10	17	45	50	0		-1	1	38AXOR2N1EAFVYF	2	2JV21O3W5XH03321GDBYKPLTI9QBHD	1352253941		Chrome-22	United States	24.15.223.10	18	403	150	0		-1	1	38AXOR2N1EAFVYF	2	2JV21O3W5XH03321GDBYKPLTI9QBHD	1352253946		Chrome-22	United States	24.15.223.10	19	472	150	0		-1	1	38AXOR2N1EAFVYF	2	2JV21O3W5XH03321GDBYKPLTI9QBHD	1352253950		Chrome-22	United States	24.15.223.10	20	327	120	0		-1	1	38AXOR2N1EAFVYF	2	2JV21O3W5XH03321GDBYKPLTI9QBHD	1352253955		Chrome-22	United States	24.15.223.10	21	84	7	0		-1	1	38AXOR2N1EAFVYF	2	2JV21O3W5XH03321GDBYKPLTI9QBHD	1352253959		Chrome-22	United States	24.15.223.10	22	119	75	0		-1	1	42AXOR2N1EAFVYF	2	2JV21O3W5XH03321GDBYKPLTI9QBHD	1352253962		Chrome-22	United States	24.15.223.10	23	261	75	0		-1	1	42AXOR2N1EAFVYF	2	2JV21O3W5XH03321GDBYKPLTI9QBHD	1352253966		Chrome-22	United States	24.15.223.10	24	416	1000	0		-1	1	42AXOR2N1EAFVYF	2	2JV21O3W5XH03321GDBYKPLTI9QBHD	1352253971		Chrome-22	United States	24.15.223.10	25	219	100	0		-1	1	43AXOR2N1EAFVYF	2	2JV21O3W5XH03321GDBYKPLTI9QBHD	1352253976		Chrome-22	United States	24.15.223.10	26	241	90	0		-1	1	43AXOR2N1EAFVYF	2	2JV21O3W5XH03321GDBYKPLTI9QBHD	1352253981		Chrome-22	United States	24.15.223.10	27	482	175	0		-1	1	43AXOR2N1EAFVYF	2	2JV21O3W5XH03321GDBYKPLTI9QBHD	1352253985		Chrome-22	United States	24.15.223.10	28	332	300	0		-1	1	53AXOR2N1EAFVYF	2	2JV21O3W5XH03321GDBYKPLTI9QBHD	1352253989		Chrome-22	United States	24.15.223.10	29	196	200	0		-1	1	63AXOR2N1EAFVYF	2	2JV21O3W5XH03321GDBYKPLTI9QBHD	1352253992		Chrome-22	United States	24.15.223.10	30	386	300	0		-1	1	71AXOR2N1EAFVYF	2	2JV21O3W5XH03321GDBYKPLTI9QBHD	1352253997		Chrome-22	United States	24.15.223.10	31	15	30	15		-1	2	72AXOR2N1EAFVYF	2	2JV21O3W5XH03321GDBYKPLTI9QBHD	1352254002		Chrome-22	United States	24.15.223.10	32	434	200	364		-1	2	74AXOR2N1EAFVYF	2	2JV21O3W5XH03321GDBYKPLTI9QBHD	1352254006		Chrome-22	United States	24.15.223.10	33	194	200	167		-1	2	83AXOR2N1EAFVYF	2	2JV21O3W5XH03321GDBYKPLTI9QBHD	1352254010		Chrome-22	United States	24.15.223.10	34	147	150	128		-1	2	92AXOR2N1EAFVYF	2	2JV21O3W5XH03321GDBYKPLTI9QBHD	1352254015		Chrome-22	United States	24.15.223.10	35	308	130	261		-1	2	93AXOR2N1EAFVYF	2	2JV21O3W5XH03321GDBYKPLTI9QBHD	1352254019		Chrome-22	United States	24.15.223.10	36	143	130	125		-1	2	103AXOR2N1EAFVYF	2	2JV21O3W5XH03321GDBYKPLTI9QBHD	1352254023		Chrome-22	United States	24.15.223.10	37	44	100	41		-1	2	103AXOR2N1EAFVYF	2	2JV21O3W5XH03321GDBYKPLTI9QBHD	1352254027		Chrome-22	United States	24.15.223.10	38	176	100	152		-1	2	108AXOR2N1EAFVYF	2	2JV21O3W5XH03321GDBYKPLTI9QBHD	1352254031		Chrome-22	United States	24.15.223.10	39	38	70	35		-1	2	109AXOR2N1EAFVYF	2	2JV21O3W5XH03321GDBYKPLTI9QBHD	1352254035		Chrome-22	United States	24.15.223.10	40	27	50	26		-1	2	111AXOR2N1EAFVYF	2	2JV21O3W5XH03321GDBYKPLTI9QBHD	1352254039		Chrome-22	United States	24.15.223.10	41	311	200	264		-1	2	118AXOR2N1EAFVYF	2	2JV21O3W5XH03321GDBYKPLTI9QBHD	1352254043		Chrome-22	United States	24.15.223.10	42	290	300	246		-1	2	126AXOR2N1EAFVYF	2	2JV21O3W5XH03321GDBYKPLTI9QBHD	1352254046		Chrome-22	United States	24.15.223.10	43	481	300	402		-1	2	133AXOR2N1EAFVYF	2	2JV21O3W5XH03321GDBYKPLTI9QBHD	1352254050		Chrome-22	United States	24.15.223.10	44	320	350	271		-1	2	141AXOR2N1EAFVYF	2	2JV21O3W5XH03321GDBYKPLTI9QBHD	1352254054		Chrome-22	United States	24.15.223.10	45	359	350	303		-1	2	150AXOR2N1EAFVYF	2	2JV21O3W5XH03321GDBYKPLTI9QBHD	1352254058		Chrome-22	United States	24.15.223.10	46	202	200	174		-1	2	159AXOR2N1EAFVYF	2	2JV21O3W5XH03321GDBYKPLTI9QBHD	1352254062		Chrome-22	United States	24.15.223.10	47	166	174	144		-1	2	168AXOR2N1EAFVYF	2	2JV21O3W5XH03321GDBYKPLTI9QBHD	1352254066		Chrome-22	United States	24.15.223.10	48	106	130	94		-1	2	174AXOR2N1EAFVYF	2	2JV21O3W5XH03321GDBYKPLTI9QBHD	1352254070		Chrome-22	United States	24.15.223.10	49	378	200	318		-1	2	178AXOR2N1EAFVYF	2	2JV21O3W5XH03321GDBYKPLTI9QBHD	1352254074		Chrome-22	United States	24.15.223.10	50	274	310	233		-1	2	185AXOR2N1EAFVYF	2	2JV21O3W5XH03321GDBYKPLTI9QBHD	1352254079		Chrome-22	United States	24.15.223.10	51	500	350	417		-1	2	194AXOR2N1EAFVYF	2	2JV21O3W5XH03321GDBYKPLTI9QBHD	1352254086		Chrome-22	United States	24.15.223.10	52	470	400	393		-1	2	204AXOR2N1EAFVYF	2	2JV21O3W5XH03321GDBYKPLTI9QBHD	1352254089		Chrome-22	United States	24.15.223.10	53	305	400	259		-1	2	208AXOR2N1EAFVYF	2	2JV21O3W5XH03321GDBYKPLTI9QBHD	1352254093		Chrome-22	United States	24.15.223.10	54	61	50	55		-1	2	218AXOR2N1EAFVYF	2	2JV21O3W5XH03321GDBYKPLTI9QBHD	1352254097		Chrome-22	United States	24.15.223.10	55	308	150	261		-1	2	221AXOR2N1EAFVYF	2	2JV21O3W5XH03321GDBYKPLTI9QBHD	1352254101		Chrome-22	United States	24.15.223.10	56	192	200	166		-1	2	230AXOR2N1EAFVYF	2	2JV21O3W5XH03321GDBYKPLTI9QBHD	1352254105		Chrome-22	United States	24.15.223.10	57	219	200	188		-1	2	240AXOR2N1EAFVYF	2	2JV21O3W5XH03321GDBYKPLTI9QBHD	1352254111		Chrome-22	United States	24.15.223.10	58	53	90	48		-1	2	242AXOR2N1EAFVYF	2	2JV21O3W5XH03321GDBYKPLTI9QBHD	1352254116		Chrome-22	United States	24.15.223.10	59	187	75	162		-1	2	243AXOR2N1EAFVYF	2	2JV21O3W5XH03321GDBYKPLTI9QBHD	1352254119		Chrome-22	United States	24.15.223.10	60	181	200	157		-1	2	251AXOR2N1EAFVYF	2	2JV21O3W5XH03321GDBYKPLTI9QBHD	1352254123		Chrome-22	United States	24.15.223.10	61	96	150	0		-1	3	255AXOR2N1EAFVYF	2	2JV21O3W5XH03321GDBYKPLTI9QBHD	1352254126		Chrome-22	United States	24.15.223.10	62	358	300	0		-1	3	264AXOR2N1EAFVYF	2	2JV21O3W5XH03321GDBYKPLTI9QBHD	1352254129		Chrome-22	United States	24.15.223.10	63	372	400	0		-1	3	274AXOR2N1EAFVYF	2	2JV21O3W5XH03321GDBYKPLTI9QBHD	1352254135		Chrome-22	United States	24.15.223.10	64	102	60	0		-1	3	277AXOR2N1EAFVYF	2	2JV21O3W5XH03321GDBYKPLTI9QBHD	1352254138		Chrome-22	United States	24.15.223.10	65	126	100	0		-1	3	285AXOR2N1EAFVYF	2	2JV21O3W5XH03321GDBYKPLTI9QBHD	1352254142		Chrome-22	United States	24.15.223.10	66	94	90	0		-1	3	295AXOR2N1EAFVYF	2	2JV21O3W5XH03321GDBYKPLTI9QBHD	1352254147		Chrome-22	United States	24.15.223.10	67	439	250	0		-1	3	298AXOR2N1EAFVYF	2	2JV21O3W5XH03321GDBYKPLTI9QBHD	1352254150		Chrome-22	United States	24.15.223.10	68	230	300	0		-1	3	305AXOR2N1EAFVYF	2	2JV21O3W5XH03321GDBYKPLTI9QBHD	1352254153		Chrome-22	United States	24.15.223.10	69	27	50	0		-1	3	307AXOR2N1EAFVYF	2	2JV21O3W5XH03321GDBYKPLTI9QBHD	1352254159		Chrome-22	United States	24.15.223.10	70	280	170	0		-1	3	310AXOR2N1EAFVYF	2	2JV21O3W5XH03321GDBYKPLTI9QBHD	1352254163		Chrome-22	United States	24.15.223.10	71	223	200	0		-1	3	319AXOR2N1EAFVYF	2	2JV21O3W5XH03321GDBYKPLTI9QBHD	1352254168		Chrome-22	United States	24.15.223.10	72	286	250	0		-1	3	328AXOR2N1EAFVYF	2	2JV21O3W5XH03321GDBYKPLTI9QBHD	1352254171		Chrome-22	United States	24.15.223.10	73	88	100	0		-1	3	337AXOR2N1EAFVYF	2	2JV21O3W5XH03321GDBYKPLTI9QBHD	1352254181		Chrome-22	United States	24.15.223.10	74	232	100	0		-1	3	337AXOR2N1EAFVYF	2	2JV21O3W5XH03321GDBYKPLTI9QBHD	1352254185		Chrome-22	United States	24.15.223.10	75	94	50	0		-1	3	339AXOR2N1EAFVYF	2	2JV21O3W5XH03321GDBYKPLTI9QBHD	1352254189		Chrome-22	United States	24.15.223.10	76	240	100	0		-1	3	339AXOR2N1EAFVYF	2	2JV21O3W5XH03321GDBYKPLTI9QBHD	1352254193		Chrome-22	United States	24.15.223.10	77	324	200	0		-1	3	343AXOR2N1EAFVYF	2	2JV21O3W5XH03321GDBYKPLTI9QBHD	1352254197		Chrome-22	United States	24.15.223.10	78	462	400	0		-1	3	352AXOR2N1EAFVYF	2	2JV21O3W5XH03321GDBYKPLTI9QBHD	1352254200		Chrome-22	United States	24.15.223.10	79	300	300	0		-1	3	362AXOR2N1EAFVYF	2	2JV21O3W5XH03321GDBYKPLTI9QBHD	1352254204		Chrome-22	United States	24.15.223.10	80	474	500	0		-1	3	372AXOR2N1EAFVYF	2	2JV21O3W5XH03321GDBYKPLTI9QBHD	1352254208		Chrome-22	United States	24.15.223.10	81	74	100	0		-1	3	379AXOR2N1EAFVYF	2	2JV21O3W5XH03321GDBYKPLTI9QBHD	1352254212		Chrome-22	United States	24.15.223.10	82	340	100	0		-1	3	379AXOR2N1EAFVYF	2	2JV21O3W5XH03321GDBYKPLTI9QBHD	1352254216		Chrome-22	United States	24.15.223.10	83	310	200	0		-1	3	383AXOR2N1EAFVYF	2	2JV21O3W5XH03321GDBYKPLTI9QBHD	1352254219		Chrome-22	United States	24.15.223.10	84	466	350	0		-1	3	390AXOR2N1EAFVYF	2	2JV21O3W5XH03321GDBYKPLTI9QBHD	1352254223		Chrome-22	United States	24.15.223.10	85	304	300	0		-1	3	400AXOR2N1EAFVYF	2	2JV21O3W5XH03321GDBYKPLTI9QBHD	1352254226		Chrome-22	United States	24.15.223.10	86	397	300	0		-1	3	407AXOR2N1EAFVYF	2	2JV21O3W5XH03321GDBYKPLTI9QBHD	1352254230		Chrome-22	United States	24.15.223.10	87	97	120	0		-1	3	415AXOR2N1EAFVYF	2	2JV21O3W5XH03321GDBYKPLTI9QBHD	1352254234		Chrome-22	United States	24.15.223.10	88	437	350	0		-1	3	423AXOR2N1EAFVYF	2	2JV21O3W5XH03321GDBYKPLTI9QBHD	1352254238		Chrome-22	United States	24.15.223.10	89	271	275	0		-1	3	433AXOR2N1EAFVYF	2	2JV21O3W5XH03321GDBYKPLTI9QBHD	1352254242		Chrome-22	United States	24.15.223.10	90	321	300	0		-1	3	443AXOR2N1EAFVYF	2	2JV21O3W5XH03321GDBYKPLTI9QBHD	1352254247		Chrome-22	United States	24.15.223.10	91	236	250	0		-1	0	453AOOJY0XKNYJYZ	2GP3YOCCF0CPPYAYRTEIOXYJXD8STE	2WTNFSVGULF3TJ554Y71LS3ORQJ8M1	1352265106		Firefox-16	United States	68.184.44.135	1	496	200	0	3823	0	1	0AOOJY0XKNYJYZ	2GP3YOCCF0CPPYAYRTEIOXYJXD8STE	2WTNFSVGULF3TJ554Y71LS3ORQJ8M1	1352265111		Firefox-16	United States	68.184.44.135	2	162	100	0	2503	0	1	4AOOJY0XKNYJYZ	2GP3YOCCF0CPPYAYRTEIOXYJXD8STE	2WTNFSVGULF3TJ554Y71LS3ORQJ8M1	1352265115		Firefox-16	United States	68.184.44.135	3	253	125	0	2227	0	1	5AOOJY0XKNYJYZ	2GP3YOCCF0CPPYAYRTEIOXYJXD8STE	2WTNFSVGULF3TJ554Y71LS3ORQJ8M1	1352265120		Firefox-16	United States	68.184.44.135	4	284	150	0	2930	0	1	7AOOJY0XKNYJYZ	2GP3YOCCF0CPPYAYRTEIOXYJXD8STE	2WTNFSVGULF3TJ554Y71LS3ORQJ8M1	1352265125		Firefox-16	United States	68.184.44.135	5	149	125	0	2812	0	1	16AOOJY0XKNYJYZ	2GP3YOCCF0CPPYAYRTEIOXYJXD8STE	2WTNFSVGULF3TJ554Y71LS3ORQJ8M1	1352265130		Firefox-16	United States	68.184.44.135	6	240	150	0	2555	0	1	20AOOJY0XKNYJYZ	2GP3YOCCF0CPPYAYRTEIOXYJXD8STE	2WTNFSVGULF3TJ554Y71LS3ORQJ8M1	1352265135		Firefox-16	United States	68.184.44.135	7	210	125	0	2638	0	1	23AOOJY0XKNYJYZ	2GP3YOCCF0CPPYAYRTEIOXYJXD8STE	2WTNFSVGULF3TJ554Y71LS3ORQJ8M1	1352265142		Firefox-16	United States	68.184.44.135	8	159	125	0	4874	0	1	31AOOJY0XKNYJYZ	2GP3YOCCF0CPPYAYRTEIOXYJXD8STE	2WTNFSVGULF3TJ554Y71LS3ORQJ8M1	1352265147		Firefox-16	United States	68.184.44.135	9	153	120	0	2981	0	1	39AOOJY0XKNYJYZ	2GP3YOCCF0CPPYAYRTEIOXYJXD8STE	2WTNFSVGULF3TJ554Y71LS3ORQJ8M1	1352265152		Firefox-16	United States	68.184.44.135	10	210	140	0	2165	0	1	44AOOJY0XKNYJYZ	2GP3YOCCF0CPPYAYRTEIOXYJXD8STE	2WTNFSVGULF3TJ554Y71LS3ORQJ8M1	1352265157		Firefox-16	United States	68.184.44.135	11	344	200	0	2436	0	1	47AOOJY0XKNYJYZ	2GP3YOCCF0CPPYAYRTEIOXYJXD8STE	2WTNFSVGULF3TJ554Y71LS3ORQJ8M1	1352265161		Firefox-16	United States	68.184.44.135	12	210	145	0	2672	0	1	53AOOJY0XKNYJYZ	2GP3YOCCF0CPPYAYRTEIOXYJXD8STE	2WTNFSVGULF3TJ554Y71LS3ORQJ8M1	1352265166		Firefox-16	United States	68.184.44.135	13	483	250	0	2351	0	1	55AOOJY0XKNYJYZ	2GP3YOCCF0CPPYAYRTEIOXYJXD8STE	2WTNFSVGULF3TJ554Y71LS3ORQJ8M1	1352265171		Firefox-16	United States	68.184.44.135	14	410	350	0	2889	0	1	64AOOJY0XKNYJYZ	2GP3YOCCF0CPPYAYRTEIOXYJXD8STE	2WTNFSVGULF3TJ554Y71LS3ORQJ8M1	1352265175		Firefox-16	United States	68.184.44.135	15	245	200	0	2701	0	1	72AOOJY0XKNYJYZ	2GP3YOCCF0CPPYAYRTEIOXYJXD8STE	2WTNFSVGULF3TJ554Y71LS3ORQJ8M1	1352265180		Firefox-16	United States	68.184.44.135	16	170	125	0	2516	0	1	79AOOJY0XKNYJYZ	2GP3YOCCF0CPPYAYRTEIOXYJXD8STE	2WTNFSVGULF3TJ554Y71LS3ORQJ8M1	1352265185		Firefox-16	United States	68.184.44.135	17	209	140	0	2914	0	1	84AOOJY0XKNYJYZ	2GP3YOCCF0CPPYAYRTEIOXYJXD8STE	2WTNFSVGULF3TJ554Y71LS3ORQJ8M1	1352265190		Firefox-16	United States	68.184.44.135	18	434	210	0	2562	0	1	85AOOJY0XKNYJYZ	2GP3YOCCF0CPPYAYRTEIOXYJXD8STE	2WTNFSVGULF3TJ554Y71LS3ORQJ8M1	1352265194		Firefox-16	United States	68.184.44.135	19	440	300	0	2230	0	1	90AOOJY0XKNYJYZ	2GP3YOCCF0CPPYAYRTEIOXYJXD8STE	2WTNFSVGULF3TJ554Y71LS3ORQJ8M1	1352265199		Firefox-16	United States	68.184.44.135	20	468	320	0	2187	0	1	95AOOJY0XKNYJYZ	2GP3YOCCF0CPPYAYRTEIOXYJXD8STE	2WTNFSVGULF3TJ554Y71LS3ORQJ8M1	1352265203		Firefox-16	United States	68.184.44.135	21	313	300	0	2041	0	1	105AOOJY0XKNYJYZ	2GP3YOCCF0CPPYAYRTEIOXYJXD8STE	2WTNFSVGULF3TJ554Y71LS3ORQJ8M1	1352265208		Firefox-16	United States	68.184.44.135	22	188	125	0	2868	0	1	110AOOJY0XKNYJYZ	2GP3YOCCF0CPPYAYRTEIOXYJXD8STE	2WTNFSVGULF3TJ554Y71LS3ORQJ8M1	1352265212		Firefox-16	United States	68.184.44.135	23	269	175	0	2363	0	1	114AOOJY0XKNYJYZ	2GP3YOCCF0CPPYAYRTEIOXYJXD8STE	2WTNFSVGULF3TJ554Y71LS3ORQJ8M1	1352265217		Firefox-16	United States	68.184.44.135	24	227	150	0	2747	0	1	119AOOJY0XKNYJYZ	2GP3YOCCF0CPPYAYRTEIOXYJXD8STE	2WTNFSVGULF3TJ554Y71LS3ORQJ8M1	1352265223		Firefox-16	United States	68.184.44.135	25	112	150	0	3560	0	1	126AOOJY0XKNYJYZ	2GP3YOCCF0CPPYAYRTEIOXYJXD8STE	2WTNFSVGULF3TJ554Y71LS3ORQJ8M1	1352265227		Firefox-16	United States	68.184.44.135	26	268	175	0	1928	0	1	131AOOJY0XKNYJYZ	2GP3YOCCF0CPPYAYRTEIOXYJXD8STE	2WTNFSVGULF3TJ554Y71LS3ORQJ8M1	1352265231		Firefox-16	United States	68.184.44.135	27	482	275	0	1866	0	1	134AOOJY0XKNYJYZ	2GP3YOCCF0CPPYAYRTEIOXYJXD8STE	2WTNFSVGULF3TJ554Y71LS3ORQJ8M1	1352265236		Firefox-16	United States	68.184.44.135	28	281	175	0	2516	0	1	138AOOJY0XKNYJYZ	2GP3YOCCF0CPPYAYRTEIOXYJXD8STE	2WTNFSVGULF3TJ554Y71LS3ORQJ8M1	1352265240		Firefox-16	United States	68.184.44.135	29	58	100	0	1734	0	1	141AOOJY0XKNYJYZ	2GP3YOCCF0CPPYAYRTEIOXYJXD8STE	2WTNFSVGULF3TJ554Y71LS3ORQJ8M1	1352265244		Firefox-16	United States	68.184.44.135	30	61	80	0	1839	0	1	148AOOJY0XKNYJYZ	2GP3YOCCF0CPPYAYRTEIOXYJXD8STE	2WTNFSVGULF3TJ554Y71LS3ORQJ8M1	1352265249		Firefox-16	United States	68.184.44.135	31	239	140	239	2857	0	2	151AOOJY0XKNYJYZ	2GP3YOCCF0CPPYAYRTEIOXYJXD8STE	2WTNFSVGULF3TJ554Y71LS3ORQJ8M1	1352265254		Firefox-16	United States	68.184.44.135	32	458	239	458	2814	0	2	153AOOJY0XKNYJYZ	2GP3YOCCF0CPPYAYRTEIOXYJXD8STE	2WTNFSVGULF3TJ554Y71LS3ORQJ8M1	1352265258		Firefox-16	United States	68.184.44.135	33	39	100	39	1738	0	2	153AOOJY0XKNYJYZ	2GP3YOCCF0CPPYAYRTEIOXYJXD8STE	2WTNFSVGULF3TJ554Y71LS3ORQJ8M1	1352265263		Firefox-16	United States	68.184.44.135	34	303	150	303	3625	0	2	154AOOJY0XKNYJYZ	2GP3YOCCF0CPPYAYRTEIOXYJXD8STE	2WTNFSVGULF3TJ554Y71LS3ORQJ8M1	1352265267		Firefox-16	United States	68.184.44.135	35	404	340	404	2115	0	2	163AOOJY0XKNYJYZ	2GP3YOCCF0CPPYAYRTEIOXYJXD8STE	2WTNFSVGULF3TJ554Y71LS3ORQJ8M1	1352265272		Firefox-16	United States	68.184.44.135	36	438	404	438	2167	0	2	173AOOJY0XKNYJYZ	2GP3YOCCF0CPPYAYRTEIOXYJXD8STE	2WTNFSVGULF3TJ554Y71LS3ORQJ8M1	1352265276		Firefox-16	United States	68.184.44.135	37	52	100	52	1856	0	2	175AOOJY0XKNYJYZ	2GP3YOCCF0CPPYAYRTEIOXYJXD8STE	2WTNFSVGULF3TJ554Y71LS3ORQJ8M1	1352265280		Firefox-16	United States	68.184.44.135	38	11	20	11	2474	0	2	177AOOJY0XKNYJYZ	2GP3YOCCF0CPPYAYRTEIOXYJXD8STE	2WTNFSVGULF3TJ554Y71LS3ORQJ8M1	1352265285		Firefox-16	United States	68.184.44.135	39	288	100	288	2477	0	2	177AOOJY0XKNYJYZ	2GP3YOCCF0CPPYAYRTEIOXYJXD8STE	2WTNFSVGULF3TJ554Y71LS3ORQJ8M1	1352265289		Firefox-16	United States	68.184.44.135	40	295	288	295	2077	0	2	187AOOJY0XKNYJYZ	2GP3YOCCF0CPPYAYRTEIOXYJXD8STE	2WTNFSVGULF3TJ554Y71LS3ORQJ8M1	1352265293		Firefox-16	United States	68.184.44.135	41	427	350	427	1701	0	2	195AOOJY0XKNYJYZ	2GP3YOCCF0CPPYAYRTEIOXYJXD8STE	2WTNFSVGULF3TJ554Y71LS3ORQJ8M1	1352265297		Firefox-16	United States	68.184.44.135	42	435	500	435	1779	0	2	204AOOJY0XKNYJYZ	2GP3YOCCF0CPPYAYRTEIOXYJXD8STE	2WTNFSVGULF3TJ554Y71LS3ORQJ8M1	1352265301		Firefox-16	United States	68.184.44.135	43	424	450	424	2559	0	2	214AOOJY0XKNYJYZ	2GP3YOCCF0CPPYAYRTEIOXYJXD8STE	2WTNFSVGULF3TJ554Y71LS3ORQJ8M1	1352265306		Firefox-16	United States	68.184.44.135	44	440	425	440	2323	0	2	224AOOJY0XKNYJYZ	2GP3YOCCF0CPPYAYRTEIOXYJXD8STE	2WTNFSVGULF3TJ554Y71LS3ORQJ8M1	1352265311		Firefox-16	United States	68.184.44.135	45	284	375	284	2548	0	2	231AOOJY0XKNYJYZ	2GP3YOCCF0CPPYAYRTEIOXYJXD8STE	2WTNFSVGULF3TJ554Y71LS3ORQJ8M1	1352265315		Firefox-16	United States	68.184.44.135	46	365	300	365	1991	0	2	239AOOJY0XKNYJYZ	2GP3YOCCF0CPPYAYRTEIOXYJXD8STE	2WTNFSVGULF3TJ554Y71LS3ORQJ8M1	1352265319		Firefox-16	United States	68.184.44.135	47	272	285	272	2354	0	2	249AOOJY0XKNYJYZ	2GP3YOCCF0CPPYAYRTEIOXYJXD8STE	2WTNFSVGULF3TJ554Y71LS3ORQJ8M1	1352265323		Firefox-16	United States	68.184.44.135	48	493	350	493	2262	0	2	255AOOJY0XKNYJYZ	2GP3YOCCF0CPPYAYRTEIOXYJXD8STE	2WTNFSVGULF3TJ554Y71LS3ORQJ8M1	1352265328		Firefox-16	United States	68.184.44.135	49	432	500	432	2469	0	2	264AOOJY0XKNYJYZ	2GP3YOCCF0CPPYAYRTEIOXYJXD8STE	2WTNFSVGULF3TJ554Y71LS3ORQJ8M1	1352265333		Firefox-16	United States	68.184.44.135	50	195	200	195	3155	0	2	274AOOJY0XKNYJYZ	2GP3YOCCF0CPPYAYRTEIOXYJXD8STE	2WTNFSVGULF3TJ554Y71LS3ORQJ8M1	1352265337		Firefox-16	United States	68.184.44.135	51	449	400	449	1935	0	2	283AOOJY0XKNYJYZ	2GP3YOCCF0CPPYAYRTEIOXYJXD8STE	2WTNFSVGULF3TJ554Y71LS3ORQJ8M1	1352265342		Firefox-16	United States	68.184.44.135	52	31	60	31	2629	0	2	284AOOJY0XKNYJYZ	2GP3YOCCF0CPPYAYRTEIOXYJXD8STE	2WTNFSVGULF3TJ554Y71LS3ORQJ8M1	1352265346		Firefox-16	United States	68.184.44.135	53	113	70	113	2117	0	2	288AOOJY0XKNYJYZ	2GP3YOCCF0CPPYAYRTEIOXYJXD8STE	2WTNFSVGULF3TJ554Y71LS3ORQJ8M1	1352265350		Firefox-16	United States	68.184.44.135	54	362	200	362	2219	0	2	290AOOJY0XKNYJYZ	2GP3YOCCF0CPPYAYRTEIOXYJXD8STE	2WTNFSVGULF3TJ554Y71LS3ORQJ8M1	1352265356		Firefox-16	United States	68.184.44.135	55	106	175	106	3038	0	2	293AOOJY0XKNYJYZ	2GP3YOCCF0CPPYAYRTEIOXYJXD8STE	2WTNFSVGULF3TJ554Y71LS3ORQJ8M1	1352265360		Firefox-16	United States	68.184.44.135	56	450	300	450	1943	0	2	298AOOJY0XKNYJYZ	2GP3YOCCF0CPPYAYRTEIOXYJXD8STE	2WTNFSVGULF3TJ554Y71LS3ORQJ8M1	1352265364		Firefox-16	United States	68.184.44.135	57	403	425	403	2723	0	2	308AOOJY0XKNYJYZ	2GP3YOCCF0CPPYAYRTEIOXYJXD8STE	2WTNFSVGULF3TJ554Y71LS3ORQJ8M1	1352265369		Firefox-16	United States	68.184.44.135	58	342	450	342	2709	0	2	315AOOJY0XKNYJYZ	2GP3YOCCF0CPPYAYRTEIOXYJXD8STE	2WTNFSVGULF3TJ554Y71LS3ORQJ8M1	1352265373		Firefox-16	United States	68.184.44.135	59	489	450	489	1462	0	2	325AOOJY0XKNYJYZ	2GP3YOCCF0CPPYAYRTEIOXYJXD8STE	2WTNFSVGULF3TJ554Y71LS3ORQJ8M1	1352265377		Firefox-16	United States	68.184.44.135	60	24	30	24	2025	0	2	333AOOJY0XKNYJYZ	2GP3YOCCF0CPPYAYRTEIOXYJXD8STE	2WTNFSVGULF3TJ554Y71LS3ORQJ8M1	1352265382		Firefox-16	United States	68.184.44.135	61	173	140	0	3133	0	3	341AOOJY0XKNYJYZ	2GP3YOCCF0CPPYAYRTEIOXYJXD8STE	2WTNFSVGULF3TJ554Y71LS3ORQJ8M1	1352265389		Firefox-16	United States	68.184.44.135	62	55	75	0	4276	0	3	348AOOJY0XKNYJYZ	2GP3YOCCF0CPPYAYRTEIOXYJXD8STE	2WTNFSVGULF3TJ554Y71LS3ORQJ8M1	1352265393		Firefox-16	United States	68.184.44.135	63	135	100	0	1768	0	3	355AOOJY0XKNYJYZ	2GP3YOCCF0CPPYAYRTEIOXYJXD8STE	2WTNFSVGULF3TJ554Y71LS3ORQJ8M1	1352265397		Firefox-16	United States	68.184.44.135	64	162	125	0	2094	0	3	362AOOJY0XKNYJYZ	2GP3YOCCF0CPPYAYRTEIOXYJXD8STE	2WTNFSVGULF3TJ554Y71LS3ORQJ8M1	1352265401		Firefox-16	United States	68.184.44.135	65	101	125	0	1941	0	3	370AOOJY0XKNYJYZ	2GP3YOCCF0CPPYAYRTEIOXYJXD8STE	2WTNFSVGULF3TJ554Y71LS3ORQJ8M1	1352265405		Firefox-16	United States	68.184.44.135	66	200	200	0	1645	0	3	380AOOJY0XKNYJYZ	2GP3YOCCF0CPPYAYRTEIOXYJXD8STE	2WTNFSVGULF3TJ554Y71LS3ORQJ8M1	1352265409		Firefox-16	United States	68.184.44.135	67	250	250	0	2533	0	3	390AOOJY0XKNYJYZ	2GP3YOCCF0CPPYAYRTEIOXYJXD8STE	2WTNFSVGULF3TJ554Y71LS3ORQJ8M1	1352265414		Firefox-16	United States	68.184.44.135	68	314	340	0	2600	0	3	400AOOJY0XKNYJYZ	2GP3YOCCF0CPPYAYRTEIOXYJXD8STE	2WTNFSVGULF3TJ554Y71LS3ORQJ8M1	1352265419		Firefox-16	United States	68.184.44.135	69	46	35	0	2901	0	3	407AOOJY0XKNYJYZ	2GP3YOCCF0CPPYAYRTEIOXYJXD8STE	2WTNFSVGULF3TJ554Y71LS3ORQJ8M1	1352265422		Firefox-16	United States	68.184.44.135	70	35	35	0	1476	0	3	417AOOJY0XKNYJYZ	2GP3YOCCF0CPPYAYRTEIOXYJXD8STE	2WTNFSVGULF3TJ554Y71LS3ORQJ8M1	1352265426		Firefox-16	United States	68.184.44.135	71	373	400	0	1815	0	3	427AOOJY0XKNYJYZ	2GP3YOCCF0CPPYAYRTEIOXYJXD8STE	2WTNFSVGULF3TJ554Y71LS3ORQJ8M1	1352265431		Firefox-16	United States	68.184.44.135	72	76	120	0	2937	0	3	431AOOJY0XKNYJYZ	2GP3YOCCF0CPPYAYRTEIOXYJXD8STE	2WTNFSVGULF3TJ554Y71LS3ORQJ8M1	1352265436		Firefox-16	United States	68.184.44.135	73	123	175	0	2468	0	3	437AOOJY0XKNYJYZ	2GP3YOCCF0CPPYAYRTEIOXYJXD8STE	2WTNFSVGULF3TJ554Y71LS3ORQJ8M1	1352265440		Firefox-16	United States	68.184.44.135	74	205	250	0	2111	0	3	445AOOJY0XKNYJYZ	2GP3YOCCF0CPPYAYRTEIOXYJXD8STE	2WTNFSVGULF3TJ554Y71LS3ORQJ8M1	1352265444		Firefox-16	United States	68.184.44.135	75	360	400	0	2200	0	3	455AOOJY0XKNYJYZ	2GP3YOCCF0CPPYAYRTEIOXYJXD8STE	2WTNFSVGULF3TJ554Y71LS3ORQJ8M1	1352265449		Firefox-16	United States	68.184.44.135	76	125	150	0	2683	0	3	464AOOJY0XKNYJYZ	2GP3YOCCF0CPPYAYRTEIOXYJXD8STE	2WTNFSVGULF3TJ554Y71LS3ORQJ8M1	1352265454		Firefox-16	United States	68.184.44.135	77	464	475	0	2694	0	3	474AOOJY0XKNYJYZ	2GP3YOCCF0CPPYAYRTEIOXYJXD8STE	2WTNFSVGULF3TJ554Y71LS3ORQJ8M1	1352265460		Firefox-16	United States	68.184.44.135	78	163	150	0	4383	0	3	484AOOJY0XKNYJYZ	2GP3YOCCF0CPPYAYRTEIOXYJXD8STE	2WTNFSVGULF3TJ554Y71LS3ORQJ8M1	1352265465		Firefox-16	United States	68.184.44.135	79	305	350	0	3280	0	3	493AOOJY0XKNYJYZ	2GP3YOCCF0CPPYAYRTEIOXYJXD8STE	2WTNFSVGULF3TJ554Y71LS3ORQJ8M1	1352265469		Firefox-16	United States	68.184.44.135	80	402	350	0	1665	0	3	502AOOJY0XKNYJYZ	2GP3YOCCF0CPPYAYRTEIOXYJXD8STE	2WTNFSVGULF3TJ554Y71LS3ORQJ8M1	1352265473		Firefox-16	United States	68.184.44.135	81	441	450	0	2067	0	3	512AOOJY0XKNYJYZ	2GP3YOCCF0CPPYAYRTEIOXYJXD8STE	2WTNFSVGULF3TJ554Y71LS3ORQJ8M1	1352265477		Firefox-16	United States	68.184.44.135	82	164	250	0	1904	0	3	517AOOJY0XKNYJYZ	2GP3YOCCF0CPPYAYRTEIOXYJXD8STE	2WTNFSVGULF3TJ554Y71LS3ORQJ8M1	1352265482		Firefox-16	United States	68.184.44.135	83	322	290	0	2237	0	3	527AOOJY0XKNYJYZ	2GP3YOCCF0CPPYAYRTEIOXYJXD8STE	2WTNFSVGULF3TJ554Y71LS3ORQJ8M1	1352265485		Firefox-16	United States	68.184.44.135	84	294	290	0	1599	0	3	537AOOJY0XKNYJYZ	2GP3YOCCF0CPPYAYRTEIOXYJXD8STE	2WTNFSVGULF3TJ554Y71LS3ORQJ8M1	1352265489		Firefox-16	United States	68.184.44.135	85	492	450	0	1608	0	3	547AOOJY0XKNYJYZ	2GP3YOCCF0CPPYAYRTEIOXYJXD8STE	2WTNFSVGULF3TJ554Y71LS3ORQJ8M1	1352265493		Firefox-16	United States	68.184.44.135	86	146	150	0	1868	0	3	557AOOJY0XKNYJYZ	2GP3YOCCF0CPPYAYRTEIOXYJXD8STE	2WTNFSVGULF3TJ554Y71LS3ORQJ8M1	1352265498		Firefox-16	United States	68.184.44.135	87	418	300	0	2567	0	3	563AOOJY0XKNYJYZ	2GP3YOCCF0CPPYAYRTEIOXYJXD8STE	2WTNFSVGULF3TJ554Y71LS3ORQJ8M1	1352265502		Firefox-16	United States	68.184.44.135	88	495	400	0	2290	0	3	571AOOJY0XKNYJYZ	2GP3YOCCF0CPPYAYRTEIOXYJXD8STE	2WTNFSVGULF3TJ554Y71LS3ORQJ8M1	1352265506		Firefox-16	United States	68.184.44.135	89	238	200	0	2248	0	3	580AOOJY0XKNYJYZ	2GP3YOCCF0CPPYAYRTEIOXYJXD8STE	2WTNFSVGULF3TJ554Y71LS3ORQJ8M1	1352265511		Firefox-16	United States	68.184.44.135	90	53	50	0	2246	0	3	590AOOJY0XKNYJYZ	2GP3YOCCF0CPPYAYRTEIOXYJXD8STE	2WTNFSVGULF3TJ554Y71LS3ORQJ8M1	1352265515		Firefox-16	United States	68.184.44.135	91	162	80	0	1954	0	0	591ANVA561W7V4X0	23UD5NQYN5F3AEWP34PMTCW14SWB7L	2WTNFSVGULF3TJ554Y71LS3ORQJ8M1	1352264712		Chrome-22	India	117.201.33.20	1	131	0	0	12090	0	1	0ANVA561W7V4X0	23UD5NQYN5F3AEWP34PMTCW14SWB7L	2WTNFSVGULF3TJ554Y71LS3ORQJ8M1	1352264720		Chrome-22	India	117.201.33.20	2	194	100	0	4894	0	1	1ANVA561W7V4X0	23UD5NQYN5F3AEWP34PMTCW14SWB7L	2WTNFSVGULF3TJ554Y71LS3ORQJ8M1	1352264730		Chrome-22	India	117.201.33.20	3	25	30	0	6066	0	1	10ANVA561W7V4X0	23UD5NQYN5F3AEWP34PMTCW14SWB7L	2WTNFSVGULF3TJ554Y71LS3ORQJ8M1	1352264736		Chrome-22	India	117.201.33.20	4	242	110	0	3227	0	1	11ANVA561W7V4X0	23UD5NQYN5F3AEWP34PMTCW14SWB7L	2WTNFSVGULF3TJ554Y71LS3ORQJ8M1	1352264742		Chrome-22	India	117.201.33.20	5	265	200	0	3311	0	1	18ANVA561W7V4X0	23UD5NQYN5F3AEWP34PMTCW14SWB7L	2WTNFSVGULF3TJ554Y71LS3ORQJ8M1	1352264748		Chrome-22	India	117.201.33.20	6	477	300	0	2300	0	1	22ANVA561W7V4X0	23UD5NQYN5F3AEWP34PMTCW14SWB7L	2WTNFSVGULF3TJ554Y71LS3ORQJ8M1	1352264754		Chrome-22	India	117.201.33.20	7	336	400	0	3119	0	1	31ANVA561W7V4X0	23UD5NQYN5F3AEWP34PMTCW14SWB7L	2WTNFSVGULF3TJ554Y71LS3ORQJ8M1	1352264759		Chrome-22	India	117.201.33.20	8	108	50	0	2033	0	1	32ANVA561W7V4X0	23UD5NQYN5F3AEWP34PMTCW14SWB7L	2WTNFSVGULF3TJ554Y71LS3ORQJ8M1	1352264765		Chrome-22	India	117.201.33.20	9	496	500	0	2263	0	1	42ANVA561W7V4X0	23UD5NQYN5F3AEWP34PMTCW14SWB7L	2WTNFSVGULF3TJ554Y71LS3ORQJ8M1	1352264771		Chrome-22	India	117.201.33.20	10	167	100	0	2878	0	1	45ANVA561W7V4X0	23UD5NQYN5F3AEWP34PMTCW14SWB7L	2WTNFSVGULF3TJ554Y71LS3ORQJ8M1	1352264776		Chrome-22	India	117.201.33.20	11	252	150	0	1791	0	1	48ANVA561W7V4X0	23UD5NQYN5F3AEWP34PMTCW14SWB7L	2WTNFSVGULF3TJ554Y71LS3ORQJ8M1	1352264780		Chrome-22	India	117.201.33.20	12	493	500	0	1807	0	1	58ANVA561W7V4X0	23UD5NQYN5F3AEWP34PMTCW14SWB7L	2WTNFSVGULF3TJ554Y71LS3ORQJ8M1	1352264786		Chrome-22	India	117.201.33.20	13	219	200	0	2061	0	1	68ANVA561W7V4X0	23UD5NQYN5F3AEWP34PMTCW14SWB7L	2WTNFSVGULF3TJ554Y71LS3ORQJ8M1	1352264791		Chrome-22	India	117.201.33.20	14	447	500	0	1799	0	1	77ANVA561W7V4X0	23UD5NQYN5F3AEWP34PMTCW14SWB7L	2WTNFSVGULF3TJ554Y71LS3ORQJ8M1	1352264796		Chrome-22	India	117.201.33.20	15	19	20	0	2223	0	1	87ANVA561W7V4X0	23UD5NQYN5F3AEWP34PMTCW14SWB7L	2WTNFSVGULF3TJ554Y71LS3ORQJ8M1	1352264802		Chrome-22	India	117.201.33.20	16	49	50	0	1939	0	1	97ANVA561W7V4X0	23UD5NQYN5F3AEWP34PMTCW14SWB7L	2WTNFSVGULF3TJ554Y71LS3ORQJ8M1	1352264806		Chrome-22	India	117.201.33.20	17	264	200	0	1881	0	1	104ANVA561W7V4X0	23UD5NQYN5F3AEWP34PMTCW14SWB7L	2WTNFSVGULF3TJ554Y71LS3ORQJ8M1	1352264812		Chrome-22	India	117.201.33.20	18	427	500	0	1671	0	1	113ANVA561W7V4X0	23UD5NQYN5F3AEWP34PMTCW14SWB7L	2WTNFSVGULF3TJ554Y71LS3ORQJ8M1	1352264817		Chrome-22	India	117.201.33.20	19	142	1850	0	1936	0	1	113ANVA561W7V4X0	23UD5NQYN5F3AEWP34PMTCW14SWB7L	2WTNFSVGULF3TJ554Y71LS3ORQJ8M1	1352264822		Chrome-22	India	117.201.33.20	20	360	300	0	2109	0	1	122ANVA561W7V4X0	23UD5NQYN5F3AEWP34PMTCW14SWB7L	2WTNFSVGULF3TJ554Y71LS3ORQJ8M1	1352264827		Chrome-22	India	117.201.33.20	21	487	600	0	1873	0	1	130ANVA561W7V4X0	23UD5NQYN5F3AEWP34PMTCW14SWB7L	2WTNFSVGULF3TJ554Y71LS3ORQJ8M1	1352264834		Chrome-22	India	117.201.33.20	22	90	50	0	4609	0	1	132ANVA561W7V4X0	23UD5NQYN5F3AEWP34PMTCW14SWB7L	2WTNFSVGULF3TJ554Y71LS3ORQJ8M1	1352264839		Chrome-22	India	117.201.33.20	23	159	100	0	1803	0	1	136ANVA561W7V4X0	23UD5NQYN5F3AEWP34PMTCW14SWB7L	2WTNFSVGULF3TJ554Y71LS3ORQJ8M1	1352264844		Chrome-22	India	117.201.33.20	24	53	50	0	1737	0	1	146ANVA561W7V4X0	23UD5NQYN5F3AEWP34PMTCW14SWB7L	2WTNFSVGULF3TJ554Y71LS3ORQJ8M1	1352264848		Chrome-22	India	117.201.33.20	25	67	50	0	1421	0	1	153ANVA561W7V4X0	23UD5NQYN5F3AEWP34PMTCW14SWB7L	2WTNFSVGULF3TJ554Y71LS3ORQJ8M1	1352264854		Chrome-22	India	117.201.33.20	26	277	250	0	2246	0	1	163ANVA561W7V4X0	23UD5NQYN5F3AEWP34PMTCW14SWB7L	2WTNFSVGULF3TJ554Y71LS3ORQJ8M1	1352264863		Chrome-22	India	117.201.33.20	27	482	1000	0	6200	0	1	164ANVA561W7V4X0	23UD5NQYN5F3AEWP34PMTCW14SWB7L	2WTNFSVGULF3TJ554Y71LS3ORQJ8M1	1352264868		Chrome-22	India	117.201.33.20	28	318	500	0	2472	0	1	168ANVA561W7V4X0	23UD5NQYN5F3AEWP34PMTCW14SWB7L	2WTNFSVGULF3TJ554Y71LS3ORQJ8M1	1352264878		Chrome-22	India	117.201.33.20	29	299	300	0	6461	0	1	178ANVA561W7V4X0	23UD5NQYN5F3AEWP34PMTCW14SWB7L	2WTNFSVGULF3TJ554Y71LS3ORQJ8M1	1352264883		Chrome-22	India	117.201.33.20	30	465	500	0	1779	0	1	188ANVA561W7V4X0	23UD5NQYN5F3AEWP34PMTCW14SWB7L	2WTNFSVGULF3TJ554Y71LS3ORQJ8M1	1352264890		Chrome-22	India	117.201.33.20	31	447	900	447	3005	0	2	189ANVA561W7V4X0	23UD5NQYN5F3AEWP34PMTCW14SWB7L	2WTNFSVGULF3TJ554Y71LS3ORQJ8M1	1352264895		Chrome-22	India	117.201.33.20	32	434	500	434	2587	0	2	198ANVA561W7V4X0	23UD5NQYN5F3AEWP34PMTCW14SWB7L	2WTNFSVGULF3TJ554Y71LS3ORQJ8M1	1352264901		Chrome-22	India	117.201.33.20	33	348	300	348	2187	0	2	207ANVA561W7V4X0	23UD5NQYN5F3AEWP34PMTCW14SWB7L	2WTNFSVGULF3TJ554Y71LS3ORQJ8M1	1352264906		Chrome-22	India	117.201.33.20	34	326	320	326	2671	0	2	217ANVA561W7V4X0	23UD5NQYN5F3AEWP34PMTCW14SWB7L	2WTNFSVGULF3TJ554Y71LS3ORQJ8M1	1352264913		Chrome-22	India	117.201.33.20	35	235	250	235	3204	0	2	227ANVA561W7V4X0	23UD5NQYN5F3AEWP34PMTCW14SWB7L	2WTNFSVGULF3TJ554Y71LS3ORQJ8M1	1352264919		Chrome-22	India	117.201.33.20	36	16	20	16	2830	0	2	235ANVA561W7V4X0	23UD5NQYN5F3AEWP34PMTCW14SWB7L	2WTNFSVGULF3TJ554Y71LS3ORQJ8M1	1352264924		Chrome-22	India	117.201.33.20	37	52	50	52	2248	0	2	245ANVA561W7V4X0	23UD5NQYN5F3AEWP34PMTCW14SWB7L	2WTNFSVGULF3TJ554Y71LS3ORQJ8M1	1352264930		Chrome-22	India	117.201.33.20	38	63	63	63	2070	0	2	255ANVA561W7V4X0	23UD5NQYN5F3AEWP34PMTCW14SWB7L	2WTNFSVGULF3TJ554Y71LS3ORQJ8M1	1352264937		Chrome-22	India	117.201.33.20	39	257	253	257	2927	0	2	265ANVA561W7V4X0	23UD5NQYN5F3AEWP34PMTCW14SWB7L	2WTNFSVGULF3TJ554Y71LS3ORQJ8M1	1352264947		Chrome-22	India	117.201.33.20	40	304	362	304	6998	0	2	274ANVA561W7V4X0	23UD5NQYN5F3AEWP34PMTCW14SWB7L	2WTNFSVGULF3TJ554Y71LS3ORQJ8M1	1352264953		Chrome-22	India	117.201.33.20	41	338	200	338	2728	0	2	277ANVA561W7V4X0	23UD5NQYN5F3AEWP34PMTCW14SWB7L	2WTNFSVGULF3TJ554Y71LS3ORQJ8M1	1352264959		Chrome-22	India	117.201.33.20	42	28	52	28	2150	0	2	279ANVA561W7V4X0	23UD5NQYN5F3AEWP34PMTCW14SWB7L	2WTNFSVGULF3TJ554Y71LS3ORQJ8M1	1352264969		Chrome-22	India	117.201.33.20	43	328	63	328	7186	0	2	279ANVA561W7V4X0	23UD5NQYN5F3AEWP34PMTCW14SWB7L	2WTNFSVGULF3TJ554Y71LS3ORQJ8M1	1352264975		Chrome-22	India	117.201.33.20	44	261	300	261	2222	0	2	288ANVA561W7V4X0	23UD5NQYN5F3AEWP34PMTCW14SWB7L	2WTNFSVGULF3TJ554Y71LS3ORQJ8M1	1352264981		Chrome-22	India	117.201.33.20	45	279	250	279	2832	0	2	297ANVA561W7V4X0	23UD5NQYN5F3AEWP34PMTCW14SWB7L	2WTNFSVGULF3TJ554Y71LS3ORQJ8M1	1352264987		Chrome-22	India	117.201.33.20	46	79	100	79	2828	0	2	305ANVA561W7V4X0	23UD5NQYN5F3AEWP34PMTCW14SWB7L	2WTNFSVGULF3TJ554Y71LS3ORQJ8M1	1352264995		Chrome-22	India	117.201.33.20	47	35	69	35	5052	0	2	306ANVA561W7V4X0	23UD5NQYN5F3AEWP34PMTCW14SWB7L	2WTNFSVGULF3TJ554Y71LS3ORQJ8M1	1352265000		Chrome-22	India	117.201.33.20	48	417	500	417	2240	0	2	315ANVA561W7V4X0	23UD5NQYN5F3AEWP34PMTCW14SWB7L	2WTNFSVGULF3TJ554Y71LS3ORQJ8M1	1352265006		Chrome-22	India	117.201.33.20	49	454	659	454	2320	0	2	320ANVA561W7V4X0	23UD5NQYN5F3AEWP34PMTCW14SWB7L	2WTNFSVGULF3TJ554Y71LS3ORQJ8M1	1352265013		Chrome-22	India	117.201.33.20	50	479	429	479	3710	0	2	329ANVA561W7V4X0	23UD5NQYN5F3AEWP34PMTCW14SWB7L	2WTNFSVGULF3TJ554Y71LS3ORQJ8M1	1352265018		Chrome-22	India	117.201.33.20	51	262	302	262	2894	0	2	338ANVA561W7V4X0	23UD5NQYN5F3AEWP34PMTCW14SWB7L	2WTNFSVGULF3TJ554Y71LS3ORQJ8M1	1352265024		Chrome-22	India	117.201.33.20	52	261	200	261	1683	0	2	345ANVA561W7V4X0	23UD5NQYN5F3AEWP34PMTCW14SWB7L	2WTNFSVGULF3TJ554Y71LS3ORQJ8M1	1352265029		Chrome-22	India	117.201.33.20	53	335	302	335	2253	0	2	355ANVA561W7V4X0	23UD5NQYN5F3AEWP34PMTCW14SWB7L	2WTNFSVGULF3TJ554Y71LS3ORQJ8M1	1352265035		Chrome-22	India	117.201.33.20	54	448	369	448	2991	0	2	363ANVA561W7V4X0	23UD5NQYN5F3AEWP34PMTCW14SWB7L	2WTNFSVGULF3TJ554Y71LS3ORQJ8M1	1352265040		Chrome-22	India	117.201.33.20	55	234	263	234	2297	0	2	372ANVA561W7V4X0	23UD5NQYN5F3AEWP34PMTCW14SWB7L	2WTNFSVGULF3TJ554Y71LS3ORQJ8M1	1352265049		Chrome-22	India	117.201.33.20	56	133	250	133	5709	0	2	374ANVA561W7V4X0	23UD5NQYN5F3AEWP34PMTCW14SWB7L	2WTNFSVGULF3TJ554Y71LS3ORQJ8M1	1352265055		Chrome-22	India	117.201.33.20	57	211	200	211	2121	0	2	384ANVA561W7V4X0	23UD5NQYN5F3AEWP34PMTCW14SWB7L	2WTNFSVGULF3TJ554Y71LS3ORQJ8M1	1352265060		Chrome-22	India	117.201.33.20	58	80	100	80	2068	0	2	392ANVA561W7V4X0	23UD5NQYN5F3AEWP34PMTCW14SWB7L	2WTNFSVGULF3TJ554Y71LS3ORQJ8M1	1352265065		Chrome-22	India	117.201.33.20	59	367	400	367	2418	0	2	402ANVA561W7V4X0	23UD5NQYN5F3AEWP34PMTCW14SWB7L	2WTNFSVGULF3TJ554Y71LS3ORQJ8M1	1352265070		Chrome-22	India	117.201.33.20	60	196	300	196	2002	0	2	407ANVA561W7V4X0	23UD5NQYN5F3AEWP34PMTCW14SWB7L	2WTNFSVGULF3TJ554Y71LS3ORQJ8M1	1352265075		Chrome-22	India	117.201.33.20	61	466	500	0	1808	0	3	417ANVA561W7V4X0	23UD5NQYN5F3AEWP34PMTCW14SWB7L	2WTNFSVGULF3TJ554Y71LS3ORQJ8M1	1352265081		Chrome-22	India	117.201.33.20	62	172	250	0	2648	0	3	422ANVA561W7V4X0	23UD5NQYN5F3AEWP34PMTCW14SWB7L	2WTNFSVGULF3TJ554Y71LS3ORQJ8M1	1352265086		Chrome-22	India	117.201.33.20	63	353	300	0	2242	0	3	431ANVA561W7V4X0	23UD5NQYN5F3AEWP34PMTCW14SWB7L	2WTNFSVGULF3TJ554Y71LS3ORQJ8M1	1352265096		Chrome-22	India	117.201.33.20	64	312	100	0	2829	0	3	431ANVA561W7V4X0	23UD5NQYN5F3AEWP34PMTCW14SWB7L	2WTNFSVGULF3TJ554Y71LS3ORQJ8M1	1352265105		Chrome-22	India	117.201.33.20	65	325	0	0	3041	0	3	431ANVA561W7V4X0	23UD5NQYN5F3AEWP34PMTCW14SWB7L	2WTNFSVGULF3TJ554Y71LS3ORQJ8M1	1352265116		Chrome-22	India	117.201.33.20	66	109	150	0	5023	0	3	437ANVA561W7V4X0	23UD5NQYN5F3AEWP34PMTCW14SWB7L	2WTNFSVGULF3TJ554Y71LS3ORQJ8M1	1352265141		Chrome-22	India	117.201.33.20	67	176	10	0	21000	0	3	437ANVA561W7V4X0	23UD5NQYN5F3AEWP34PMTCW14SWB7L	2WTNFSVGULF3TJ554Y71LS3ORQJ8M1	1352265152		Chrome-22	India	117.201.33.20	68	104	20	0	7759	0	3	437ANVA561W7V4X0	23UD5NQYN5F3AEWP34PMTCW14SWB7L	2WTNFSVGULF3TJ554Y71LS3ORQJ8M1	1352265159		Chrome-22	India	117.201.33.20	69	401	52	0	4397	0	3	437ANVA561W7V4X0	23UD5NQYN5F3AEWP34PMTCW14SWB7L	2WTNFSVGULF3TJ554Y71LS3ORQJ8M1	1352265164		Chrome-22	India	117.201.33.20	70	442	300	0	2065	0	3	442ANVA561W7V4X0	23UD5NQYN5F3AEWP34PMTCW14SWB7L	2WTNFSVGULF3TJ554Y71LS3ORQJ8M1	1352265169		Chrome-22	India	117.201.33.20	71	458	400	0	1843	0	3	451ANVA561W7V4X0	23UD5NQYN5F3AEWP34PMTCW14SWB7L	2WTNFSVGULF3TJ554Y71LS3ORQJ8M1	1352265174		Chrome-22	India	117.201.33.20	72	230	250	0	1702	0	3	461ANVA561W7V4X0	23UD5NQYN5F3AEWP34PMTCW14SWB7L	2WTNFSVGULF3TJ554Y71LS3ORQJ8M1	1352265179		Chrome-22	India	117.201.33.20	73	288	250	0	1669	0	3	470ANVA561W7V4X0	23UD5NQYN5F3AEWP34PMTCW14SWB7L	2WTNFSVGULF3TJ554Y71LS3ORQJ8M1	1352265184		Chrome-22	India	117.201.33.20	74	420	300	0	1705	0	3	476ANVA561W7V4X0	23UD5NQYN5F3AEWP34PMTCW14SWB7L	2WTNFSVGULF3TJ554Y71LS3ORQJ8M1	1352265188		Chrome-22	India	117.201.33.20	75	110	150	0	1640	0	3	483ANVA561W7V4X0	23UD5NQYN5F3AEWP34PMTCW14SWB7L	2WTNFSVGULF3TJ554Y71LS3ORQJ8M1	1352265193		Chrome-22	India	117.201.33.20	76	453	300	0	1626	0	3	488ANVA561W7V4X0	23UD5NQYN5F3AEWP34PMTCW14SWB7L	2WTNFSVGULF3TJ554Y71LS3ORQJ8M1	1352265198		Chrome-22	India	117.201.33.20	77	180	200	0	1681	0	3	498ANVA561W7V4X0	23UD5NQYN5F3AEWP34PMTCW14SWB7L	2WTNFSVGULF3TJ554Y71LS3ORQJ8M1	1352265204		Chrome-22	India	117.201.33.20	78	228	250	0	1871	0	3	508ANVA561W7V4X0	23UD5NQYN5F3AEWP34PMTCW14SWB7L	2WTNFSVGULF3TJ554Y71LS3ORQJ8M1	1352265209		Chrome-22	India	117.201.33.20	79	466	300	0	2702	0	3	512ANVA561W7V4X0	23UD5NQYN5F3AEWP34PMTCW14SWB7L	2WTNFSVGULF3TJ554Y71LS3ORQJ8M1	1352265216		Chrome-22	India	117.201.33.20	80	262	260	0	2980	0	3	522ANVA561W7V4X0	23UD5NQYN5F3AEWP34PMTCW14SWB7L	2WTNFSVGULF3TJ554Y71LS3ORQJ8M1	1352265220		Chrome-22	India	117.201.33.20	81	154	150	0	1527	0	3	532ANVA561W7V4X0	23UD5NQYN5F3AEWP34PMTCW14SWB7L	2WTNFSVGULF3TJ554Y71LS3ORQJ8M1	1352265225		Chrome-22	India	117.201.33.20	82	156	200	0	1615	0	3	540ANVA561W7V4X0	23UD5NQYN5F3AEWP34PMTCW14SWB7L	2WTNFSVGULF3TJ554Y71LS3ORQJ8M1	1352265230		Chrome-22	India	117.201.33.20	83	260	350	0	1909	0	3	547ANVA561W7V4X0	23UD5NQYN5F3AEWP34PMTCW14SWB7L	2WTNFSVGULF3TJ554Y71LS3ORQJ8M1	1352265235		Chrome-22	India	117.201.33.20	84	141	150	0	1543	0	3	557ANVA561W7V4X0	23UD5NQYN5F3AEWP34PMTCW14SWB7L	2WTNFSVGULF3TJ554Y71LS3ORQJ8M1	1352265240		Chrome-22	India	117.201.33.20	85	484	400	0	1769	0	3	566ANVA561W7V4X0	23UD5NQYN5F3AEWP34PMTCW14SWB7L	2WTNFSVGULF3TJ554Y71LS3ORQJ8M1	1352265245		Chrome-22	India	117.201.33.20	86	23	20	0	1759	0	3	575ANVA561W7V4X0	23UD5NQYN5F3AEWP34PMTCW14SWB7L	2WTNFSVGULF3TJ554Y71LS3ORQJ8M1	1352265250		Chrome-22	India	117.201.33.20	87	341	350	0	1916	0	3	585ANVA561W7V4X0	23UD5NQYN5F3AEWP34PMTCW14SWB7L	2WTNFSVGULF3TJ554Y71LS3ORQJ8M1	1352265254		Chrome-22	India	117.201.33.20	88	348	450	0	1448	0	3	592ANVA561W7V4X0	23UD5NQYN5F3AEWP34PMTCW14SWB7L	2WTNFSVGULF3TJ554Y71LS3ORQJ8M1	1352265259		Chrome-22	India	117.201.33.20	89	42	50	0	1610	0	3	601ANVA561W7V4X0	23UD5NQYN5F3AEWP34PMTCW14SWB7L	2WTNFSVGULF3TJ554Y71LS3ORQJ8M1	1352265264		Chrome-22	India	117.201.33.20	90	496	600	0	2344	0	3	610ANVA561W7V4X0	23UD5NQYN5F3AEWP34PMTCW14SWB7L	2WTNFSVGULF3TJ554Y71LS3ORQJ8M1	1352265269		Chrome-22	India	117.201.33.20	91	344	500	0	1840	0	0	615A6AE4JPL2X6ZH	3	2JV21O3W5XH03321GDBYKPLTI9QBHD	1352253852		Firefox-16	United States	108.230.236.114	1	135	100	0		-1	1	7A6AE4JPL2X6ZH	3	2JV21O3W5XH03321GDBYKPLTI9QBHD	1352253882		Firefox-16	United States	108.230.236.114	2	112	70	0		-1	1	11A6AE4JPL2X6ZH	3	2JV21O3W5XH03321GDBYKPLTI9QBHD	1352253889		Firefox-16	United States	108.230.236.114	3	444	175	0		-1	1	11A6AE4JPL2X6ZH	3	2JV21O3W5XH03321GDBYKPLTI9QBHD	1352253895		Firefox-16	United States	108.230.236.114	4	210	100	0		-1	1	12A6AE4JPL2X6ZH	3	2JV21O3W5XH03321GDBYKPLTI9QBHD	1352253949		Firefox-16	United States	108.230.236.114	5	445	75	0		-1	1	12A6AE4JPL2X6ZH	3	2JV21O3W5XH03321GDBYKPLTI9QBHD	1352253954		Firefox-16	United States	108.230.236.114	6	345	115	0		-1	1	12A6AE4JPL2X6ZH	3	2JV21O3W5XH03321GDBYKPLTI9QBHD	1352254222		Firefox-16	United States	108.230.236.114	7	385	341	0		-1	1	21A6AE4JPL2X6ZH	3	2JV21O3W5XH03321GDBYKPLTI9QBHD	1352254226		Firefox-16	United States	108.230.236.114	8	67	100	0		-1	1	26A6AE4JPL2X6ZH	3	2JV21O3W5XH03321GDBYKPLTI9QBHD	1352254231		Firefox-16	United States	108.230.236.114	9	301	400	0		-1	1	33A6AE4JPL2X6ZH	3	2JV21O3W5XH03321GDBYKPLTI9QBHD	1352254237		Firefox-16	United States	108.230.236.114	10	210	250	0		-1	1	42A6AE4JPL2X6ZH	3	2JV21O3W5XH03321GDBYKPLTI9QBHD	1352254264		Firefox-16	United States	108.230.236.114	11	129	100	0		-1	1	50A6AE4JPL2X6ZH	3	2JV21O3W5XH03321GDBYKPLTI9QBHD	1352254269		Firefox-16	United States	108.230.236.114	12	181	299	0		-1	1	53A6AE4JPL2X6ZH	3	2JV21O3W5XH03321GDBYKPLTI9QBHD	1352254274		Firefox-16	United States	108.230.236.114	13	95	130	0		-1	1	60A6AE4JPL2X6ZH	3	2JV21O3W5XH03321GDBYKPLTI9QBHD	1352254278		Firefox-16	United States	108.230.236.114	14	340	500	0		-1	1	65A6AE4JPL2X6ZH	3	2JV21O3W5XH03321GDBYKPLTI9QBHD	1352254285		Firefox-16	United States	108.230.236.114	15	210	300	0		-1	1	71A6AE4JPL2X6ZH	3	2JV21O3W5XH03321GDBYKPLTI9QBHD	1352254290		Firefox-16	United States	108.230.236.114	16	131	140	0		-1	1	81A6AE4JPL2X6ZH	3	2JV21O3W5XH03321GDBYKPLTI9QBHD	1352254299		Firefox-16	United States	108.230.236.114	17	40	300	0		-1	1	81A6AE4JPL2X6ZH	3	2JV21O3W5XH03321GDBYKPLTI9QBHD	1352254304		Firefox-16	United States	108.230.236.114	18	485	500	0		-1	1	91A6AE4JPL2X6ZH	3	2JV21O3W5XH03321GDBYKPLTI9QBHD	1352254309		Firefox-16	United States	108.230.236.114	19	424	600	0		-1	1	97A6AE4JPL2X6ZH	3	2JV21O3W5XH03321GDBYKPLTI9QBHD	1352254314		Firefox-16	United States	108.230.236.114	20	202	400	0		-1	1	98A6AE4JPL2X6ZH	3	2JV21O3W5XH03321GDBYKPLTI9QBHD	1352254318		Firefox-16	United States	108.230.236.114	21	458	500	0		-1	1	108A6AE4JPL2X6ZH	3	2JV21O3W5XH03321GDBYKPLTI9QBHD	1352254322		Firefox-16	United States	108.230.236.114	22	486	500	0		-1	1	118A6AE4JPL2X6ZH	3	2JV21O3W5XH03321GDBYKPLTI9QBHD	1352254325		Firefox-16	United States	108.230.236.114	23	383	400	0		-1	1	128A6AE4JPL2X6ZH	3	2JV21O3W5XH03321GDBYKPLTI9QBHD	1352254329		Firefox-16	United States	108.230.236.114	24	473	600	0		-1	1	136A6AE4JPL2X6ZH	3	2JV21O3W5XH03321GDBYKPLTI9QBHD	1352254333		Firefox-16	United States	108.230.236.114	25	160	100	0		-1	1	140A6AE4JPL2X6ZH	3	2JV21O3W5XH03321GDBYKPLTI9QBHD	1352254338		Firefox-16	United States	108.230.236.114	26	260	300	0		-1	1	149A6AE4JPL2X6ZH	3	2JV21O3W5XH03321GDBYKPLTI9QBHD	1352254342		Firefox-16	United States	108.230.236.114	27	440	600	0		-1	1	156A6AE4JPL2X6ZH	3	2JV21O3W5XH03321GDBYKPLTI9QBHD	1352254345		Firefox-16	United States	108.230.236.114	28	311	600	0		-1	1	158A6AE4JPL2X6ZH	3	2JV21O3W5XH03321GDBYKPLTI9QBHD	1352254349		Firefox-16	United States	108.230.236.114	29	485	700	0		-1	1	164A6AE4JPL2X6ZH	3	2JV21O3W5XH03321GDBYKPLTI9QBHD	1352254353		Firefox-16	United States	108.230.236.114	30	499	900	0		-1	1	166A6AE4JPL2X6ZH	3	2JV21O3W5XH03321GDBYKPLTI9QBHD	1352254356		Firefox-16	United States	108.230.236.114	31	323	800	273		-1	2	166A6AE4JPL2X6ZH	3	2JV21O3W5XH03321GDBYKPLTI9QBHD	1352254362		Firefox-16	United States	108.230.236.114	32	360	600	304		-1	2	167A6AE4JPL2X6ZH	3	2JV21O3W5XH03321GDBYKPLTI9QBHD	1352254366		Firefox-16	United States	108.230.236.114	33	209	100	180		-1	2	169A6AE4JPL2X6ZH	3	2JV21O3W5XH03321GDBYKPLTI9QBHD	1352254369		Firefox-16	United States	108.230.236.114	34	288	300	245		-1	2	177A6AE4JPL2X6ZH	3	2JV21O3W5XH03321GDBYKPLTI9QBHD	1352254374		Firefox-16	United States	108.230.236.114	35	407	500	342		-1	2	182A6AE4JPL2X6ZH	3	2JV21O3W5XH03321GDBYKPLTI9QBHD	1352254378		Firefox-16	United States	108.230.236.114	36	34	100	32		-1	2	182A6AE4JPL2X6ZH	3	2JV21O3W5XH03321GDBYKPLTI9QBHD	1352254382		Firefox-16	United States	108.230.236.114	37	352	600	297		-1	2	183A6AE4JPL2X6ZH	3	2JV21O3W5XH03321GDBYKPLTI9QBHD	1352254386		Firefox-16	United States	108.230.236.114	38	497	500	414		-1	2	192A6AE4JPL2X6ZH	3	2JV21O3W5XH03321GDBYKPLTI9QBHD	1352254390		Firefox-16	United States	108.230.236.114	39	356	500	300		-1	2	195A6AE4JPL2X6ZH	3	2JV21O3W5XH03321GDBYKPLTI9QBHD	1352254394		Firefox-16	United States	108.230.236.114	40	100	100	89		-1	2	204A6AE4JPL2X6ZH	3	2JV21O3W5XH03321GDBYKPLTI9QBHD	1352254399		Firefox-16	United States	108.230.236.114	41	176	87	152		-1	2	207A6AE4JPL2X6ZH	3	2JV21O3W5XH03321GDBYKPLTI9QBHD	1352254404		Firefox-16	United States	108.230.236.114	42	416	500	349		-1	2	213A6AE4JPL2X6ZH	3	2JV21O3W5XH03321GDBYKPLTI9QBHD	1352254410		Firefox-16	United States	108.230.236.114	43	475	400	397		-1	2	223A6AE4JPL2X6ZH	3	2JV21O3W5XH03321GDBYKPLTI9QBHD	1352254414		Firefox-16	United States	108.230.236.114	44	74	40	66		-1	2	226A6AE4JPL2X6ZH	3	2JV21O3W5XH03321GDBYKPLTI9QBHD	1352254418		Firefox-16	United States	108.230.236.114	45	72	40	65		-1	2	230A6AE4JPL2X6ZH	3	2JV21O3W5XH03321GDBYKPLTI9QBHD	1352254422		Firefox-16	United States	108.230.236.114	46	59	30	54		-1	2	232A6AE4JPL2X6ZH	3	2JV21O3W5XH03321GDBYKPLTI9QBHD	1352254426		Firefox-16	United States	108.230.236.114	47	253	500	216		-1	2	232A6AE4JPL2X6ZH	3	2JV21O3W5XH03321GDBYKPLTI9QBHD	1352254430		Firefox-16	United States	108.230.236.114	48	115	400	101		-1	2	232A6AE4JPL2X6ZH	3	2JV21O3W5XH03321GDBYKPLTI9QBHD	1352254433		Firefox-16	United States	108.230.236.114	49	146	300	127		-1	2	232A6AE4JPL2X6ZH	3	2JV21O3W5XH03321GDBYKPLTI9QBHD	1352254438		Firefox-16	United States	108.230.236.114	50	48	100	44		-1	2	233A6AE4JPL2X6ZH	3	2JV21O3W5XH03321GDBYKPLTI9QBHD	1352254445		Firefox-16	United States	108.230.236.114	51	30	25	28		-1	2	242A6AE4JPL2X6ZH	3	2JV21O3W5XH03321GDBYKPLTI9QBHD	1352254449		Firefox-16	United States	108.230.236.114	52	217	400	186		-1	2	243A6AE4JPL2X6ZH	3	2JV21O3W5XH03321GDBYKPLTI9QBHD	1352254452		Firefox-16	United States	108.230.236.114	53	286	300	243		-1	2	251A6AE4JPL2X6ZH	3	2JV21O3W5XH03321GDBYKPLTI9QBHD	1352254457		Firefox-16	United States	108.230.236.114	54	376	200	317		-1	2	255A6AE4JPL2X6ZH	3	2JV21O3W5XH03321GDBYKPLTI9QBHD	1352254460		Firefox-16	United States	108.230.236.114	55	164	400	142		-1	2	255A6AE4JPL2X6ZH	3	2JV21O3W5XH03321GDBYKPLTI9QBHD	1352254464		Firefox-16	United States	108.230.236.114	56	27	300	26		-1	2	255A6AE4JPL2X6ZH	3	2JV21O3W5XH03321GDBYKPLTI9QBHD	1352254467		Firefox-16	United States	108.230.236.114	57	364	300	307		-1	2	265A6AE4JPL2X6ZH	3	2JV21O3W5XH03321GDBYKPLTI9QBHD	1352254471		Firefox-16	United States	108.230.236.114	58	383	400	322		-1	2	273A6AE4JPL2X6ZH	3	2JV21O3W5XH03321GDBYKPLTI9QBHD	1352254476		Firefox-16	United States	108.230.236.114	59	104	200	92		-1	2	274A6AE4JPL2X6ZH	3	2JV21O3W5XH03321GDBYKPLTI9QBHD	1352254480		Firefox-16	United States	108.230.236.114	60	446	300	373		-1	2	282A6AE4JPL2X6ZH	3	2JV21O3W5XH03321GDBYKPLTI9QBHD	1352254484		Firefox-16	United States	108.230.236.114	61	21	10	0		-1	3	283A6AE4JPL2X6ZH	3	2JV21O3W5XH03321GDBYKPLTI9QBHD	1352254488		Firefox-16	United States	108.230.236.114	62	374	300	0		-1	3	291A6AE4JPL2X6ZH	3	2JV21O3W5XH03321GDBYKPLTI9QBHD	1352254492		Firefox-16	United States	108.230.236.114	63	43	10	0		-1	3	291A6AE4JPL2X6ZH	3	2JV21O3W5XH03321GDBYKPLTI9QBHD	1352254496		Firefox-16	United States	108.230.236.114	64	283	100	0		-1	3	291A6AE4JPL2X6ZH	3	2JV21O3W5XH03321GDBYKPLTI9QBHD	1352254500		Firefox-16	United States	108.230.236.114	65	337	600	0		-1	3	293A6AE4JPL2X6ZH	3	2JV21O3W5XH03321GDBYKPLTI9QBHD	1352254503		Firefox-16	United States	108.230.236.114	66	58	200	0		-1	3	293A6AE4JPL2X6ZH	3	2JV21O3W5XH03321GDBYKPLTI9QBHD	1352254508		Firefox-16	United States	108.230.236.114	67	127	200	0		-1	3	297A6AE4JPL2X6ZH	3	2JV21O3W5XH03321GDBYKPLTI9QBHD	1352254517		Firefox-16	United States	108.230.236.114	68	313	200	0		-1	3	301A6AE4JPL2X6ZH	3	2JV21O3W5XH03321GDBYKPLTI9QBHD	1352254525		Firefox-16	United States	108.230.236.114	69	368	400	0		-1	3	311A6AE4JPL2X6ZH	3	2JV21O3W5XH03321GDBYKPLTI9QBHD	1352254529		Firefox-16	United States	108.230.236.114	70	241	300	0		-1	3	319A6AE4JPL2X6ZH	3	2JV21O3W5XH03321GDBYKPLTI9QBHD	1352254533		Firefox-16	United States	108.230.236.114	71	434	800	0		-1	3	321A6AE4JPL2X6ZH	3	2JV21O3W5XH03321GDBYKPLTI9QBHD	1352254538		Firefox-16	United States	108.230.236.114	72	317	700	0		-1	3	322A6AE4JPL2X6ZH	3	2JV21O3W5XH03321GDBYKPLTI9QBHD	1352254542		Firefox-16	United States	108.230.236.114	73	329	700	0		-1	3	323A6AE4JPL2X6ZH	3	2JV21O3W5XH03321GDBYKPLTI9QBHD	1352254547		Firefox-16	United States	108.230.236.114	74	87	100	0		-1	3	332A6AE4JPL2X6ZH	3	2JV21O3W5XH03321GDBYKPLTI9QBHD	1352254551		Firefox-16	United States	108.230.236.114	75	240	200	0		-1	3	341A6AE4JPL2X6ZH	3	2JV21O3W5XH03321GDBYKPLTI9QBHD	1352254557		Firefox-16	United States	108.230.236.114	76	18	300	0		-1	3	341A6AE4JPL2X6ZH	3	2JV21O3W5XH03321GDBYKPLTI9QBHD	1352254562		Firefox-16	United States	108.230.236.114	77	285	200	0		-1	3	347A6AE4JPL2X6ZH	3	2JV21O3W5XH03321GDBYKPLTI9QBHD	1352254566		Firefox-16	United States	108.230.236.114	78	283	200	0		-1	3	353A6AE4JPL2X6ZH	3	2JV21O3W5XH03321GDBYKPLTI9QBHD	1352254572		Firefox-16	United States	108.230.236.114	79	111	300	0		-1	3	353A6AE4JPL2X6ZH	3	2JV21O3W5XH03321GDBYKPLTI9QBHD	1352254584		Firefox-16	United States	108.230.236.114	80	342	200	0		-1	3	356A6AE4JPL2X6ZH	3	2JV21O3W5XH03321GDBYKPLTI9QBHD	1352254589		Firefox-16	United States	108.230.236.114	81	14	20	0		-1	3	362A6AE4JPL2X6ZH	3	2JV21O3W5XH03321GDBYKPLTI9QBHD	1352254594		Firefox-16	United States	108.230.236.114	82	268	500	0		-1	3	364A6AE4JPL2X6ZH	3	2JV21O3W5XH03321GDBYKPLTI9QBHD	1352254598		Firefox-16	United States	108.230.236.114	83	375	600	0		-1	3	368A6AE4JPL2X6ZH	3	2JV21O3W5XH03321GDBYKPLTI9QBHD	1352254602		Firefox-16	United States	108.230.236.114	84	306	700	0		-1	3	369A6AE4JPL2X6ZH	3	2JV21O3W5XH03321GDBYKPLTI9QBHD	1352254608		Firefox-16	United States	108.230.236.114	85	296	500	0		-1	3	372A6AE4JPL2X6ZH	3	2JV21O3W5XH03321GDBYKPLTI9QBHD	1352254618		Firefox-16	United States	108.230.236.114	86	372	600	0		-1	3	376A6AE4JPL2X6ZH	3	2JV21O3W5XH03321GDBYKPLTI9QBHD	1352254622		Firefox-16	United States	108.230.236.114	87	28	20	0		-1	3	382A6AE4JPL2X6ZH	3	2JV21O3W5XH03321GDBYKPLTI9QBHD	1352254626		Firefox-16	United States	108.230.236.114	88	487	800	0		-1	3	385A6AE4JPL2X6ZH	3	2JV21O3W5XH03321GDBYKPLTI9QBHD	1352254630		Firefox-16	United States	108.230.236.114	89	235	500	0		-1	3	386A6AE4JPL2X6ZH	3	2JV21O3W5XH03321GDBYKPLTI9QBHD	1352254643		Firefox-16	United States	108.230.236.114	90	273	500	0		-1	3	388A6AE4JPL2X6ZH	3	2JV21O3W5XH03321GDBYKPLTI9QBHD	1352254647		Firefox-16	United States	108.230.236.114	91	239	600	0		-1	0	388A3W3IHJVRQEHVT	4	2JV21O3W5XH03321GDBYKPLTI9QBHD	1352254064		Chrome-22	India	117.203.104.62	1	326	0	0		0	1	0A3W3IHJVRQEHVT	4	2JV21O3W5XH03321GDBYKPLTI9QBHD	1352254073		Chrome-22	India	117.203.104.62	2	425	0	0		0	1	0A3W3IHJVRQEHVT	4	2JV21O3W5XH03321GDBYKPLTI9QBHD	1352254080		Chrome-22	India	117.203.104.62	3	201	100	0		0	1	1A3W3IHJVRQEHVT	4	2JV21O3W5XH03321GDBYKPLTI9QBHD	1352254089		Chrome-22	India	117.203.104.62	4	80	52	0		0	1	5A3W3IHJVRQEHVT	4	2JV21O3W5XH03321GDBYKPLTI9QBHD	1352254096		Chrome-22	India	117.203.104.62	5	242	79	0		0	1	5A3W3IHJVRQEHVT	4	2JV21O3W5XH03321GDBYKPLTI9QBHD	1352254103		Chrome-22	India	117.203.104.62	6	184	100	0		0	1	7A3W3IHJVRQEHVT	4	2JV21O3W5XH03321GDBYKPLTI9QBHD	1352254109		Chrome-22	India	117.203.104.62	7	237	150	0		0	1	11A3W3IHJVRQEHVT	4	2JV21O3W5XH03321GDBYKPLTI9QBHD	1352254116		Chrome-22	India	117.203.104.62	8	89	50	0		0	1	13A3W3IHJVRQEHVT	4	2JV21O3W5XH03321GDBYKPLTI9QBHD	1352254122		Chrome-22	India	117.203.104.62	9	88	60	0		0	1	18A3W3IHJVRQEHVT	4	2JV21O3W5XH03321GDBYKPLTI9QBHD	1352254128		Chrome-22	India	117.203.104.62	10	59	60	0		0	1	28A3W3IHJVRQEHVT	4	2JV21O3W5XH03321GDBYKPLTI9QBHD	1352254134		Chrome-22	India	117.203.104.62	11	461	200	0		0	1	28A3W3IHJVRQEHVT	4	2JV21O3W5XH03321GDBYKPLTI9QBHD	1352254139		Chrome-22	India	117.203.104.62	12	70	60	0		0	1	37A3W3IHJVRQEHVT	4	2JV21O3W5XH03321GDBYKPLTI9QBHD	1352254146		Chrome-22	India	117.203.104.62	13	76	50	0		0	1	42A3W3IHJVRQEHVT	4	2JV21O3W5XH03321GDBYKPLTI9QBHD	1352254151		Chrome-22	India	117.203.104.62	14	204	100	0		0	1	43A3W3IHJVRQEHVT	4	2JV21O3W5XH03321GDBYKPLTI9QBHD	1352254157		Chrome-22	India	117.203.104.62	15	216	100	0		0	1	44A3W3IHJVRQEHVT	4	2JV21O3W5XH03321GDBYKPLTI9QBHD	1352254167		Chrome-22	India	117.203.104.62	16	105	60	0		0	1	47A3W3IHJVRQEHVT	4	2JV21O3W5XH03321GDBYKPLTI9QBHD	1352254172		Chrome-22	India	117.203.104.62	17	442	100	0		0	1	47A3W3IHJVRQEHVT	4	2JV21O3W5XH03321GDBYKPLTI9QBHD	1352254177		Chrome-22	India	117.203.104.62	18	332	150	0		0	1	48A3W3IHJVRQEHVT	4	2JV21O3W5XH03321GDBYKPLTI9QBHD	1352254185		Chrome-22	India	117.203.104.62	19	497	300	0		0	1	51A3W3IHJVRQEHVT	4	2JV21O3W5XH03321GDBYKPLTI9QBHD	1352254191		Chrome-22	India	117.203.104.62	20	275	150	0		0	1	53A3W3IHJVRQEHVT	4	2JV21O3W5XH03321GDBYKPLTI9QBHD	1352254197		Chrome-22	India	117.203.104.62	21	152	50	0		0	1	53A3W3IHJVRQEHVT	4	2JV21O3W5XH03321GDBYKPLTI9QBHD	1352254201		Chrome-22	India	117.203.104.62	22	219	60	0		0	1	53A3W3IHJVRQEHVT	4	2JV21O3W5XH03321GDBYKPLTI9QBHD	1352254214		Chrome-22	India	117.203.104.62	23	57	50	0		0	1	62A3W3IHJVRQEHVT	4	2JV21O3W5XH03321GDBYKPLTI9QBHD	1352254223		Chrome-22	India	117.203.104.62	24	225	80	0		0	1	62A3W3IHJVRQEHVT	4	2JV21O3W5XH03321GDBYKPLTI9QBHD	1352254228		Chrome-22	India	117.203.104.62	25	495	150	0		0	1	62A3W3IHJVRQEHVT	4	2JV21O3W5XH03321GDBYKPLTI9QBHD	1352254232		Chrome-22	India	117.203.104.62	26	131	50	0		0	1	62A3W3IHJVRQEHVT	4	2JV21O3W5XH03321GDBYKPLTI9QBHD	1352254237		Chrome-22	India	117.203.104.62	27	129	50+	0		0	1	NaNA3W3IHJVRQEHVT	4	2JV21O3W5XH03321GDBYKPLTI9QBHD	1352254252		Chrome-22	India	117.203.104.62	28	89	50	0		0	1	NaNA3W3IHJVRQEHVT	4	2JV21O3W5XH03321GDBYKPLTI9QBHD	1352254259		Chrome-22	India	117.203.104.62	29	110	50	0		0	1	NaNA3W3IHJVRQEHVT	4	2JV21O3W5XH03321GDBYKPLTI9QBHD	1352254265		Chrome-22	India	117.203.104.62	30	138	60	0		0	1	NaNA3W3IHJVRQEHVT	4	2JV21O3W5XH03321GDBYKPLTI9QBHD	1352254271		Chrome-22	India	117.203.104.62	31	416	500	416		0	2	NaNA3W3IHJVRQEHVT	4	2JV21O3W5XH03321GDBYKPLTI9QBHD	1352254278		Chrome-22	India	117.203.104.62	32	198	60	198		0	2	NaNA3W3IHJVRQEHVT	4	2JV21O3W5XH03321GDBYKPLTI9QBHD	1352254294		Chrome-22	India	117.203.104.62	33	375	95	375		0	2	NaNA3W3IHJVRQEHVT	4	2JV21O3W5XH03321GDBYKPLTI9QBHD	1352254300		Chrome-22	India	117.203.104.62	34	274	275	274		0	2	NaNA3W3IHJVRQEHVT	4	2JV21O3W5XH03321GDBYKPLTI9QBHD	1352254305		Chrome-22	India	117.203.104.62	35	431	375	431		0	2	NaNA3W3IHJVRQEHVT	4	2JV21O3W5XH03321GDBYKPLTI9QBHD	1352254310		Chrome-22	India	117.203.104.62	36	370	535	370		0	2	NaNA3W3IHJVRQEHVT	4	2JV21O3W5XH03321GDBYKPLTI9QBHD	1352254317		Chrome-22	India	117.203.104.62	37	443	450	443		0	2	NaNA3W3IHJVRQEHVT	4	2JV21O3W5XH03321GDBYKPLTI9QBHD	1352254323		Chrome-22	India	117.203.104.62	38	166	125	166		0	2	NaNA3W3IHJVRQEHVT	4	2JV21O3W5XH03321GDBYKPLTI9QBHD	1352254332		Chrome-22	India	117.203.104.62	39	223	200	223		0	2	NaNA3W3IHJVRQEHVT	4	2JV21O3W5XH03321GDBYKPLTI9QBHD	1352254339		Chrome-22	India	117.203.104.62	40	63	65	63		0	2	NaNA3W3IHJVRQEHVT	4	2JV21O3W5XH03321GDBYKPLTI9QBHD	1352254347		Chrome-22	India	117.203.104.62	41	479	59	479		0	2	NaNA3W3IHJVRQEHVT	4	2JV21O3W5XH03321GDBYKPLTI9QBHD	1352254352		Chrome-22	India	117.203.104.62	42	70	63	70		0	2	NaNA3W3IHJVRQEHVT	4	2JV21O3W5XH03321GDBYKPLTI9QBHD	1352254357		Chrome-22	India	117.203.104.62	43	113	75	113		0	2	NaNA3W3IHJVRQEHVT	4	2JV21O3W5XH03321GDBYKPLTI9QBHD	1352254365		Chrome-22	India	117.203.104.62	44	91	59	91		0	2	NaNA3W3IHJVRQEHVT	4	2JV21O3W5XH03321GDBYKPLTI9QBHD	1352254370		Chrome-22	India	117.203.104.62	45	229	95	229		0	2	NaNA3W3IHJVRQEHVT	4	2JV21O3W5XH03321GDBYKPLTI9QBHD	1352254375		Chrome-22	India	117.203.104.62	46	247	229	247		0	2	NaNA3W3IHJVRQEHVT	4	2JV21O3W5XH03321GDBYKPLTI9QBHD	1352254381		Chrome-22	India	117.203.104.62	47	459	345	459		0	2	NaNA3W3IHJVRQEHVT	4	2JV21O3W5XH03321GDBYKPLTI9QBHD	1352254386		Chrome-22	India	117.203.104.62	48	210	345	210		0	2	NaNA3W3IHJVRQEHVT	4	2JV21O3W5XH03321GDBYKPLTI9QBHD	1352254391		Chrome-22	India	117.203.104.62	49	398	459	398		0	2	NaNA3W3IHJVRQEHVT	4	2JV21O3W5XH03321GDBYKPLTI9QBHD	1352254396		Chrome-22	India	117.203.104.62	50	118	175	118		0	2	NaNA3W3IHJVRQEHVT	4	2JV21O3W5XH03321GDBYKPLTI9QBHD	1352254401		Chrome-22	India	117.203.104.62	51	329	475	329		0	2	NaNA3W3IHJVRQEHVT	5	2JV21O3W5XH03321GDBYKPLTI9QBHD	1352254452		Chrome-22	India	117.203.104.62	1	84	78	0		0	1	10A3W3IHJVRQEHVT	5	2JV21O3W5XH03321GDBYKPLTI9QBHD	1352254459		Chrome-22	India	117.203.104.62	2	163	69	0		0	1	10A3W3IHJVRQEHVT	5	2JV21O3W5XH03321GDBYKPLTI9QBHD	1352254464		Chrome-22	India	117.203.104.62	3	78	69	0		0	1	19A3W3IHJVRQEHVT	5	2JV21O3W5XH03321GDBYKPLTI9QBHD	1352254471		Chrome-22	India	117.203.104.62	4	356	395	0		0	1	29A3W3IHJVRQEHVT	5	2JV21O3W5XH03321GDBYKPLTI9QBHD	1352254480		Chrome-22	India	117.203.104.62	5	170	115	0		0	1	34A3W3IHJVRQEHVT	5	2JV21O3W5XH03321GDBYKPLTI9QBHD	1352254486		Chrome-22	India	117.203.104.62	6	183	118	0		0	1	38A3W3IHJVRQEHVT	5	2JV21O3W5XH03321GDBYKPLTI9QBHD	1352254495		Chrome-22	India	117.203.104.62	7	280	329	0		0	1	47A3W3IHJVRQEHVT	5	2JV21O3W5XH03321GDBYKPLTI9QBHD	1352254505		Chrome-22	India	117.203.104.62	8	88	118	0		0	1	54A3W3IHJVRQEHVT	5	2JV21O3W5XH03321GDBYKPLTI9QBHD	1352254511		Chrome-22	India	117.203.104.62	9	379	445	0		0	1	63A3W3IHJVRQEHVT	5	2JV21O3W5XH03321GDBYKPLTI9QBHD	1352254520		Chrome-22	India	117.203.104.62	10	430	518	0		0	1	72A3W3IHJVRQEHVT	5	2JV21O3W5XH03321GDBYKPLTI9QBHD	1352254527		Chrome-22	India	117.203.104.62	11	55	58	0		0	1	82A3W3IHJVRQEHVT	5	2JV21O3W5XH03321GDBYKPLTI9QBHD	1352254534		Chrome-22	India	117.203.104.62	12	36	38	0		0	1	92A3W3IHJVRQEHVT	5	2JV21O3W5XH03321GDBYKPLTI9QBHD	1352254540		Chrome-22	India	117.203.104.62	13	313	116	0		0	1	92A3W3IHJVRQEHVT	5	2JV21O3W5XH03321GDBYKPLTI9QBHD	1352254545		Chrome-22	India	117.203.104.62	14	113	98	0		0	1	101A3W3IHJVRQEHVT	5	2JV21O3W5XH03321GDBYKPLTI9QBHD	1352254554		Chrome-22	India	117.203.104.62	15	288	286	0		0	1	111A3W3IHJVRQEHVT	5	2JV21O3W5XH03321GDBYKPLTI9QBHD	1352254559		Chrome-22	India	117.203.104.62	16	73	55	0		0	1	118A3W3IHJVRQEHVT	5	2JV21O3W5XH03321GDBYKPLTI9QBHD	1352254565		Chrome-22	India	117.203.104.62	17	435	486	0		0	1	127A3W3IHJVRQEHVT	5	2JV21O3W5XH03321GDBYKPLTI9QBHD	1352254570		Chrome-22	India	117.203.104.62	18	496	396	0		0	1	135A3W3IHJVRQEHVT	5	2JV21O3W5XH03321GDBYKPLTI9QBHD	1352254576		Chrome-22	India	117.203.104.62	19	320	345	0		0	1	145A3W3IHJVRQEHVT	5	2JV21O3W5XH03321GDBYKPLTI9QBHD	1352254583		Chrome-22	India	117.203.104.62	20	314	216	0		0	1	150A3W3IHJVRQEHVT	5	2JV21O3W5XH03321GDBYKPLTI9QBHD	1352254590		Chrome-22	India	117.203.104.62	21	396	356+	0		0	1	NaNA3W3IHJVRQEHVT	5	2JV21O3W5XH03321GDBYKPLTI9QBHD	1352254590		Chrome-22	India	117.203.104.62	21	396	356+	0		0	1	NaNA3W3IHJVRQEHVT	5	2JV21O3W5XH03321GDBYKPLTI9QBHD	1352254597		Chrome-22	India	117.203.104.62	22	442	456	0		0	1	NaNA3W3IHJVRQEHVT	5	2JV21O3W5XH03321GDBYKPLTI9QBHD	1352254604		Chrome-22	India	117.203.104.62	23	439	569	0		0	1	NaNA3W3IHJVRQEHVT	5	2JV21O3W5XH03321GDBYKPLTI9QBHD	1352254609		Chrome-22	India	117.203.104.62	24	262	456+	0		0	1	NaNA3TVDFJ22T1FFN	6	2JV21O3W5XH03321GDBYKPLTI9QBHD	1352253991		Chrome-22	India	116.202.117.215	1	273	0	0		1	1	0A3TVDFJ22T1FFN	6	2JV21O3W5XH03321GDBYKPLTI9QBHD	1352254004		Chrome-22	India	116.202.117.215	2	164	80	0		1	1	1A3TVDFJ22T1FFN	6	2JV21O3W5XH03321GDBYKPLTI9QBHD	1352254017		Chrome-22	India	116.202.117.215	3	404	120	0		1	1	1A3TVDFJ22T1FFN	6	2JV21O3W5XH03321GDBYKPLTI9QBHD	1352254029		Chrome-22	India	116.202.117.215	4	438	100	0		1	1	1A3TVDFJ22T1FFN	6	2JV21O3W5XH03321GDBYKPLTI9QBHD	1352254046		Chrome-22	India	116.202.117.215	5	119	50	0		1	1	1A3TVDFJ22T1FFN	6	2JV21O3W5XH03321GDBYKPLTI9QBHD	1352254054		Chrome-22	India	116.202.117.215	6	192	60	0		1	1	1A3TVDFJ22T1FFN	6	2JV21O3W5XH03321GDBYKPLTI9QBHD	1352254064		Chrome-22	India	116.202.117.215	7	382	130	0		1	1	1A3TVDFJ22T1FFN	6	2JV21O3W5XH03321GDBYKPLTI9QBHD	1352254071		Chrome-22	India	116.202.117.215	8	11	13	0		1	1	10A3TVDFJ22T1FFN	6	2JV21O3W5XH03321GDBYKPLTI9QBHD	1352254078		Chrome-22	India	116.202.117.215	9	44	25	0		1	1	12A3TVDFJ22T1FFN	6	2JV21O3W5XH03321GDBYKPLTI9QBHD	1352254093		Chrome-22	India	116.202.117.215	10	52	30	0		1	1	15A3TVDFJ22T1FFN	6	2JV21O3W5XH03321GDBYKPLTI9QBHD	1352254102		Chrome-22	India	116.202.117.215	11	117	70	0		1	1	18A3TVDFJ22T1FFN	6	2JV21O3W5XH03321GDBYKPLTI9QBHD	1352254112		Chrome-22	India	116.202.117.215	12	54	25	0		1	1	19A3TVDFJ22T1FFN	6	2JV21O3W5XH03321GDBYKPLTI9QBHD	1352254121		Chrome-22	India	116.202.117.215	13	171	90	0		1	1	21A3TVDFJ22T1FFN	6	2JV21O3W5XH03321GDBYKPLTI9QBHD	1352254131		Chrome-22	India	116.202.117.215	14	235	110	0		1	1	22A3TVDFJ22T1FFN	6	2JV21O3W5XH03321GDBYKPLTI9QBHD	1352254141		Chrome-22	India	116.202.117.215	15	457	200	0		1	1	23A3TVDFJ22T1FFN	6	2JV21O3W5XH03321GDBYKPLTI9QBHD	1352254148		Chrome-22	India	116.202.117.215	16	124	70	0		1	1	25A3TVDFJ22T1FFN	6	2JV21O3W5XH03321GDBYKPLTI9QBHD	1352254161		Chrome-22	India	116.202.117.215	17	382	250	0		1	1	30A3TVDFJ22T1FFN	6	2JV21O3W5XH03321GDBYKPLTI9QBHD	1352254170		Chrome-22	India	116.202.117.215	18	138	60	0		1	1	30A3TVDFJ22T1FFN	6	2JV21O3W5XH03321GDBYKPLTI9QBHD	1352254181		Chrome-22	India	116.202.117.215	19	281	120	0		1	1	30A3TVDFJ22T1FFN	6	2JV21O3W5XH03321GDBYKPLTI9QBHD	1352254190		Chrome-22	India	116.202.117.215	20	483	300	0		1	1	34A3TVDFJ22T1FFN	6	2JV21O3W5XH03321GDBYKPLTI9QBHD	1352254199		Chrome-22	India	116.202.117.215	21	288	175	0		1	1	37A3TVDFJ22T1FFN	6	2JV21O3W5XH03321GDBYKPLTI9QBHD	1352254207		Chrome-22	India	116.202.117.215	22	188	60	0		1	1	37A3TVDFJ22T1FFN	6	2JV21O3W5XH03321GDBYKPLTI9QBHD	1352254215		Chrome-22	India	116.202.117.215	23	191	75	0		1	1	37A3TVDFJ22T1FFN	6	2JV21O3W5XH03321GDBYKPLTI9QBHD	1352254222		Chrome-22	India	116.202.117.215	24	88	40	0		1	1	38A3TVDFJ22T1FFN	6	2JV21O3W5XH03321GDBYKPLTI9QBHD	1352254237		Chrome-22	India	116.202.117.215	25	377	230	0		1	1	41A3TVDFJ22T1FFN	6	2JV21O3W5XH03321GDBYKPLTI9QBHD	1352254254		Chrome-22	India	116.202.117.215	26	417	50	0		1	1	41A3TVDFJ22T1FFN	6	2JV21O3W5XH03321GDBYKPLTI9QBHD	1352254262		Chrome-22	India	116.202.117.215	27	14	12	0		1	1	50A3TVDFJ22T1FFN	6	2JV21O3W5XH03321GDBYKPLTI9QBHD	1352254273		Chrome-22	India	116.202.117.215	28	380	320	0		1	1	59A3TVDFJ22T1FFN	6	2JV21O3W5XH03321GDBYKPLTI9QBHD	1352254282		Chrome-22	India	116.202.117.215	29	159	55	0		1	1	59A3TVDFJ22T1FFN	6	2JV21O3W5XH03321GDBYKPLTI9QBHD	1352254290		Chrome-22	India	116.202.117.215	30	10	12	0		1	1	68A3TVDFJ22T1FFN	6	2JV21O3W5XH03321GDBYKPLTI9QBHD	1352254452		Chrome-22	India	116.202.117.215	31	240	250	281		1	2	77A3TVDFJ22T1FFN	6	2JV21O3W5XH03321GDBYKPLTI9QBHD	1352254465		Chrome-22	India	116.202.117.215	32	143	200	164		1	2	85A3TVDFJ22T1FFN	6	2JV21O3W5XH03321GDBYKPLTI9QBHD	1352254475		Chrome-22	India	116.202.117.215	33	319	260	377		1	2	90A3TVDFJ22T1FFN	6	2JV21O3W5XH03321GDBYKPLTI9QBHD	1352254485		Chrome-22	India	116.202.117.215	34	106	110	120		1	2	100A3TVDFJ22T1FFN	6	2JV21O3W5XH03321GDBYKPLTI9QBHD	1352254492		Chrome-22	India	116.202.117.215	35	178	260	206		1	2	108A3TVDFJ22T1FFN	6	2JV21O3W5XH03321GDBYKPLTI9QBHD	1352254498		Chrome-22	India	116.202.117.215	36	287	300	338		1	2	117A3TVDFJ22T1FFN	6	2JV21O3W5XH03321GDBYKPLTI9QBHD	1352254507		Chrome-22	India	116.202.117.215	37	311	330	367		1	2	127A3TVDFJ22T1FFN	6	2JV21O3W5XH03321GDBYKPLTI9QBHD	1352254517		Chrome-22	India	116.202.117.215	38	297	360	350		1	2	137A3TVDFJ22T1FFN	6	2JV21O3W5XH03321GDBYKPLTI9QBHD	1352254528		Chrome-22	India	116.202.117.215	39	403	420	480		1	2	146A3TVDFJ22T1FFN	6	2JV21O3W5XH03321GDBYKPLTI9QBHD	1352254537		Chrome-22	India	116.202.117.215	40	98	50	111		1	2	147A3TVDFJ22T1FFN	6	2JV21O3W5XH03321GDBYKPLTI9QBHD	1352254544		Chrome-22	India	116.202.117.215	41	30	20	32		1	2	151A3TVDFJ22T1FFN	6	2JV21O3W5XH03321GDBYKPLTI9QBHD	1352254558		Chrome-22	India	116.202.117.215	42	428	470	511		1	2	161A3TVDFJ22T1FFN	6	2JV21O3W5XH03321GDBYKPLTI9QBHD	1352254565		Chrome-22	India	116.202.117.215	43	444	530	531		1	2	171A3TVDFJ22T1FFN	6	2JV21O3W5XH03321GDBYKPLTI9QBHD	1352254575		Chrome-22	India	116.202.117.215	44	103	86	117		1	2	178A3TVDFJ22T1FFN	6	2JV21O3W5XH03321GDBYKPLTI9QBHD	1352254582		Chrome-22	India	116.202.117.215	45	97	90	109		1	2	187A3TVDFJ22T1FFN	7	2JV21O3W5XH03321GDBYKPLTI9QBHD	1352254629		Chrome-22	India	116.202.117.215	1	496	150	0		1	1	0A3TVDFJ22T1FFN	7	2JV21O3W5XH03321GDBYKPLTI9QBHD	1352254638		Chrome-22	India	116.202.117.215	2	51	50	0		1	1	10A3TVDFJ22T1FFN	7	2JV21O3W5XH03321GDBYKPLTI9QBHD	1352254649		Chrome-22	India	116.202.117.215	3	120	150	0		1	1	18A3TVDFJ22T1FFN	7	2JV21O3W5XH03321GDBYKPLTI9QBHD	1352254655		Chrome-22	India	116.202.117.215	4	497	500	0		1	1	28A3TVDFJ22T1FFN	7	2JV21O3W5XH03321GDBYKPLTI9QBHD	1352254664		Chrome-22	India	116.202.117.215	5	211	280	0		1	1	35A3TVDFJ22T1FFN	7	2JV21O3W5XH03321GDBYKPLTI9QBHD	1352254672		Chrome-22	India	116.202.117.215	6	371	410	0		1	1	45A3TVDFJ22T1FFN	7	2JV21O3W5XH03321GDBYKPLTI9QBHD	1352254681		Chrome-22	India	116.202.117.215	7	320	300	0		1	1	55A3TVDFJ22T1FFN	7	2JV21O3W5XH03321GDBYKPLTI9QBHD	1352254687		Chrome-22	India	116.202.117.215	8	336	490	0		1	1	60A3TVDFJ22T1FFN	7	2JV21O3W5XH03321GDBYKPLTI9QBHD	1352254698		Chrome-22	India	116.202.117.215	9	418	480	0		1	1	69A3TVDFJ22T1FFN	7	2JV21O3W5XH03321GDBYKPLTI9QBHD	1352254706		Chrome-22	India	116.202.117.215	10	312	300	0		1	1	79A3TVDFJ22T1FFN	7	2JV21O3W5XH03321GDBYKPLTI9QBHD	1352254916		Chrome-22	India	116.202.117.215	11	198	250	0		1	1	87A3TVDFJ22T1FFN	7	2JV21O3W5XH03321GDBYKPLTI9QBHD	1352254922		Chrome-22	India	116.202.117.215	12	50	60	0		1	1	96A3TVDFJ22T1FFN	7	2JV21O3W5XH03321GDBYKPLTI9QBHD	1352254929		Chrome-22	India	116.202.117.215	13	12	20	0		1	1	99A3TVDFJ22T1FFN	7	2JV21O3W5XH03321GDBYKPLTI9QBHD	1352254936		Chrome-22	India	116.202.117.215	14	399	530	0		1	1	106A3TVDFJ22T1FFN	7	2JV21O3W5XH03321GDBYKPLTI9QBHD	1352254942		Chrome-22	India	116.202.117.215	15	409	550	0		1	1	113A3TVDFJ22T1FFN	7	2JV21O3W5XH03321GDBYKPLTI9QBHD	1352254948		Chrome-22	India	116.202.117.215	16	404	520	0		1	1	121A3TVDFJ22T1FFN	7	2JV21O3W5XH03321GDBYKPLTI9QBHD	1352254956		Chrome-22	India	116.202.117.215	17	392	530	0		1	1	128A3TVDFJ22T1FFN	7	2JV21O3W5XH03321GDBYKPLTI9QBHD	1352254962		Chrome-22	India	116.202.117.215	18	398	570	0		1	1	134A3TVDFJ22T1FFN	7	2JV21O3W5XH03321GDBYKPLTI9QBHD	1352254968		Chrome-22	India	116.202.117.215	19	183	200	0		1	1	144A3TVDFJ22T1FFN	7	2JV21O3W5XH03321GDBYKPLTI9QBHD	1352254974		Chrome-22	India	116.202.117.215	20	379	550	0		1	1	149A3TVDFJ22T1FFN	7	2JV21O3W5XH03321GDBYKPLTI9QBHD	1352254980		Chrome-22	India	116.202.117.215	21	54	25	0		1	1	150A3TVDFJ22T1FFN	7	2JV21O3W5XH03321GDBYKPLTI9QBHD	1352254988		Chrome-22	India	116.202.117.215	22	30	23	0		1	1	157A3TVDFJ22T1FFN	7	2JV21O3W5XH03321GDBYKPLTI9QBHD	1352254994		Chrome-22	India	116.202.117.215	23	316	500	0		1	1	161A3TVDFJ22T1FFN	7	2JV21O3W5XH03321GDBYKPLTI9QBHD	1352255003		Chrome-22	India	116.202.117.215	24	114	250	0		1	1	162A3TVDFJ22T1FFN	7	2JV21O3W5XH03321GDBYKPLTI9QBHD	1352255009		Chrome-22	India	116.202.117.215	25	349	560	0		1	1	166A3TVDFJ22T1FFN	7	2JV21O3W5XH03321GDBYKPLTI9QBHD	1352255016		Chrome-22	India	116.202.117.215	26	269	520	0		1	1	168A3TVDFJ22T1FFN	7	2JV21O3W5XH03321GDBYKPLTI9QBHD	1352255022		Chrome-22	India	116.202.117.215	27	234	480	0		1	1	169A3TVDFJ22T1FFN	7	2JV21O3W5XH03321GDBYKPLTI9QBHD	1352255031		Chrome-22	India	116.202.117.215	28	164	260	0		1	1	173A3TVDFJ22T1FFN	7	2JV21O3W5XH03321GDBYKPLTI9QBHD	1352255040		Chrome-22	India	116.202.117.215	29	97	120	0		1	1	181A3TVDFJ22T1FFN	7	2JV21O3W5XH03321GDBYKPLTI9QBHD	1352255046		Chrome-22	India	116.202.117.215	30	123	260	0		1	1	182A3TVDFJ22T1FFN	7	2JV21O3W5XH03321GDBYKPLTI9QBHD	1352255053		Chrome-22	India	116.202.117.215	31	488	600	585		1	2	192A3TVDFJ22T1FFN	7	2JV21O3W5XH03321GDBYKPLTI9QBHD	1352255060		Chrome-22	India	116.202.117.215	32	457	620	547		1	2	201A3TVDFJ22T1FFN	7	2JV21O3W5XH03321GDBYKPLTI9QBHD	1352255068		Chrome-22	India	116.202.117.215	33	332	400	393		1	2	211A3TVDFJ22T1FFN	7	2JV21O3W5XH03321GDBYKPLTI9QBHD	1352255074		Chrome-22	India	116.202.117.215	34	431	530	515		1	2	221A3TVDFJ22T1FFN	7	2JV21O3W5XH03321GDBYKPLTI9QBHD	1352255083		Chrome-22	India	116.202.117.215	35	300	520	354		1	2	226A3TVDFJ22T1FFN	7	2JV21O3W5XH03321GDBYKPLTI9QBHD	1352255090		Chrome-22	India	116.202.117.215	36	398	500	474		1	2	236A3TVDFJ22T1FFN	7	2JV21O3W5XH03321GDBYKPLTI9QBHD	1352255097		Chrome-22	India	116.202.117.215	37	77	80	86		1	2	246A3TVDFJ22T1FFN	7	2JV21O3W5XH03321GDBYKPLTI9QBHD	1352255103		Chrome-22	India	116.202.117.215	38	194	250	225		1	2	256A3TVDFJ22T1FFN	7	2JV21O3W5XH03321GDBYKPLTI9QBHD	1352255112		Chrome-22	India	116.202.117.215	39	130	180	149		1	2	265A3TVDFJ22T1FFN	7	2JV21O3W5XH03321GDBYKPLTI9QBHD	1352255118		Chrome-22	India	116.202.117.215	40	248	430	290		1	2	270A3TVDFJ22T1FFN	7	2JV21O3W5XH03321GDBYKPLTI9QBHD	1352255130		Chrome-22	India	116.202.117.215	41	267	334	314		1	2	280A3TVDFJ22T1FFN	7	2JV21O3W5XH03321GDBYKPLTI9QBHD	1352255136		Chrome-22	India	116.202.117.215	42	18	13	19		1	2	285A3TVDFJ22T1FFN	7	2JV21O3W5XH03321GDBYKPLTI9QBHD	1352255142		Chrome-22	India	116.202.117.215	43	28	28	30		1	2	295A3TVDFJ22T1FFN	7	2JV21O3W5XH03321GDBYKPLTI9QBHD	1352255150		Chrome-22	India	116.202.117.215	44	36	59	39		1	2	300A3TVDFJ22T1FFN	7	2JV21O3W5XH03321GDBYKPLTI9QBHD	1352255158		Chrome-22	India	116.202.117.215	45	24	35	25		1	2	306A3TVDFJ22T1FFN	7	2JV21O3W5XH03321GDBYKPLTI9QBHD	1352255164		Chrome-22	India	116.202.117.215	46	390	530	464		1	2	315A3TVDFJ22T1FFN	7	2JV21O3W5XH03321GDBYKPLTI9QBHD	1352255170		Chrome-22	India	116.202.117.215	47	374	520	444		1	2	324A3TVDFJ22T1FFN	7	2JV21O3W5XH03321GDBYKPLTI9QBHD	1352255177		Chrome-22	India	116.202.117.215	48	149	270	171		1	2	328A3TVDFJ22T1FFN	7	2JV21O3W5XH03321GDBYKPLTI9QBHD	1352255184		Chrome-22	India	116.202.117.215	49	255	321	299		1	2	338A3TVDFJ22T1FFN	7	2JV21O3W5XH03321GDBYKPLTI9QBHD	1352255193		Chrome-22	India	116.202.117.215	50	368	520	437		1	2	347A3TVDFJ22T1FFN	7	2JV21O3W5XH03321GDBYKPLTI9QBHD	1352255205		Chrome-22	India	116.202.117.215	51	356	300	422		1	2	353A3TVDFJ22T1FFN	7	2JV21O3W5XH03321GDBYKPLTI9QBHD	1352255211		Chrome-22	India	116.202.117.215	52	318	300	376		1	2	361A3TVDFJ22T1FFN	7	2JV21O3W5XH03321GDBYKPLTI9QBHD	1352255217		Chrome-22	India	116.202.117.215	53	492	480	590		1	2	369A3TVDFJ22T1FFN	7	2JV21O3W5XH03321GDBYKPLTI9QBHD	1352255222		Chrome-22	India	116.202.117.215	54	33	20	35		1	2	372A3TVDFJ22T1FFN	7	2JV21O3W5XH03321GDBYKPLTI9QBHD	1352255227		Chrome-22	India	116.202.117.215	55	263	400	309		1	2	379A3TVDFJ22T1FFN	7	2JV21O3W5XH03321GDBYKPLTI9QBHD	1352255232		Chrome-22	India	116.202.117.215	56	388	500	462		1	2	389A3TVDFJ22T1FFN	7	2JV21O3W5XH03321GDBYKPLTI9QBHD	1352255238		Chrome-22	India	116.202.117.215	57	40	70	43		1	2	393A3TVDFJ22T1FFN	7	2JV21O3W5XH03321GDBYKPLTI9QBHD	1352255244		Chrome-22	India	116.202.117.215	58	258	430	303		1	2	399A3TVDFJ22T1FFN	7	2JV21O3W5XH03321GDBYKPLTI9QBHD	1352255251		Chrome-22	India	116.202.117.215	59	137	170	157		1	2	409A3TVDFJ22T1FFN	7	2JV21O3W5XH03321GDBYKPLTI9QBHD	1352255256		Chrome-22	India	116.202.117.215	60	247	200	289		1	2	415A3TVDFJ22T1FFN	7	2JV21O3W5XH03321GDBYKPLTI9QBHD	1352255261		Chrome-22	India	116.202.117.215	61	124	180	0		1	3	420A3TVDFJ22T1FFN	7	2JV21O3W5XH03321GDBYKPLTI9QBHD	1352255268		Chrome-22	India	116.202.117.215	62	367	490	0		1	3	427A3TVDFJ22T1FFN	7	2JV21O3W5XH03321GDBYKPLTI9QBHD	1352255274		Chrome-22	India	116.202.117.215	63	339	560	0		1	3	430A3TVDFJ22T1FFN	7	2JV21O3W5XH03321GDBYKPLTI9QBHD	1352255279		Chrome-22	India	116.202.117.215	64	405	550	0		1	3	437A3TVDFJ22T1FFN	7	2JV21O3W5XH03321GDBYKPLTI9QBHD	1352255285		Chrome-22	India	116.202.117.215	65	287	450	0		1	3	441A3TVDFJ22T1FFN	7	2JV21O3W5XH03321GDBYKPLTI9QBHD	1352255290		Chrome-22	India	116.202.117.215	66	200	390	0		1	3	442A3TVDFJ22T1FFN	7	2JV21O3W5XH03321GDBYKPLTI9QBHD	1352255296		Chrome-22	India	116.202.117.215	67	436	450	0		1	3	452A3TVDFJ22T1FFN	7	2JV21O3W5XH03321GDBYKPLTI9QBHD	1352255301		Chrome-22	India	116.202.117.215	68	140	230	0		1	3	455A3TVDFJ22T1FFN	7	2JV21O3W5XH03321GDBYKPLTI9QBHD	1352255306		Chrome-22	India	116.202.117.215	69	307	450	0		1	3	460A3TVDFJ22T1FFN	7	2JV21O3W5XH03321GDBYKPLTI9QBHD	1352255311		Chrome-22	India	116.202.117.215	70	437	560	0		1	3	468A3TVDFJ22T1FFN	7	2JV21O3W5XH03321GDBYKPLTI9QBHD	1352255318		Chrome-22	India	116.202.117.215	71	197	210	0		1	3	478A3TVDFJ22T1FFN	7	2JV21O3W5XH03321GDBYKPLTI9QBHD	1352255323		Chrome-22	India	116.202.117.215	72	402	450	0		1	3	487A3TVDFJ22T1FFN	7	2JV21O3W5XH03321GDBYKPLTI9QBHD	1352255329		Chrome-22	India	116.202.117.215	73	20	30	0		1	3	492A3TVDFJ22T1FFN	7	2JV21O3W5XH03321GDBYKPLTI9QBHD	1352255336		Chrome-22	India	116.202.117.215	74	260	340	0		1	3	499A3TVDFJ22T1FFN	7	2JV21O3W5XH03321GDBYKPLTI9QBHD	1352255345		Chrome-22	India	116.202.117.215	75	156	230	0		1	3	504A3TVDFJ22T1FFN	7	2JV21O3W5XH03321GDBYKPLTI9QBHD	1352255351		Chrome-22	India	116.202.117.215	76	160	170	0		1	3	514A3TVDFJ22T1FFN	7	2JV21O3W5XH03321GDBYKPLTI9QBHD	1352255356		Chrome-22	India	116.202.117.215	77	478	560	0		1	3	523A3TVDFJ22T1FFN	7	2JV21O3W5XH03321GDBYKPLTI9QBHD	1352255361		Chrome-22	India	116.202.117.215	78	476	600	0		1	3	531A3TVDFJ22T1FFN	7	2JV21O3W5XH03321GDBYKPLTI9QBHD	1352255367		Chrome-22	India	116.202.117.215	79	188	120	0		1	3	535A3TVDFJ22T1FFN	7	2JV21O3W5XH03321GDBYKPLTI9QBHD	1352255373		Chrome-22	India	116.202.117.215	80	14	14	0		1	3	545A3TVDFJ22T1FFN	7	2JV21O3W5XH03321GDBYKPLTI9QBHD	1352255379		Chrome-22	India	116.202.117.215	81	262	350	0		1	3	552A3TVDFJ22T1FFN	7	2JV21O3W5XH03321GDBYKPLTI9QBHD	1352255387		Chrome-22	India	116.202.117.215	82	156	150	0		1	3	562A3TVDFJ22T1FFN	7	2JV21O3W5XH03321GDBYKPLTI9QBHD	1352255395		Chrome-22	India	116.202.117.215	83	328	370	0		1	3	571A3TVDFJ22T1FFN	7	2JV21O3W5XH03321GDBYKPLTI9QBHD	1352255400		Chrome-22	India	116.202.117.215	84	200	260	0		1	3	578A3TVDFJ22T1FFN	7	2JV21O3W5XH03321GDBYKPLTI9QBHD	1352255406		Chrome-22	India	116.202.117.215	85	116	160	0		1	3	584A3TVDFJ22T1FFN	7	2JV21O3W5XH03321GDBYKPLTI9QBHD	1352255412		Chrome-22	India	116.202.117.215	86	203	260	0		1	3	592A3TVDFJ22T1FFN	7	2JV21O3W5XH03321GDBYKPLTI9QBHD	1352255419		Chrome-22	India	116.202.117.215	87	398	509	0		1	3	600A3TVDFJ22T1FFN	7	2JV21O3W5XH03321GDBYKPLTI9QBHD	1352255423		Chrome-22	India	116.202.117.215	88	169	170	0		1	3	610A3TVDFJ22T1FFN	7	2JV21O3W5XH03321GDBYKPLTI9QBHD	1352255429		Chrome-22	India	116.202.117.215	89	225	270	0		1	3	619A3TVDFJ22T1FFN	7	2JV21O3W5XH03321GDBYKPLTI9QBHD	1352255435		Chrome-22	India	116.202.117.215	90	59	60	0		1	3	629A3TVDFJ22T1FFN	7	2JV21O3W5XH03321GDBYKPLTI9QBHD	1352255441		Chrome-22	India	116.202.117.215	91	468	600	0		1	0	637A3TK9CLBA65ZZE	8	2ZZPCGJ2D21ONAI6FBAPVSI3D0UB5R	1352250755		Safari-5.1	United States	74.71.96.74	1	38	17	0		1	1	10A3TK9CLBA65ZZE	8	2ZZPCGJ2D21ONAI6FBAPVSI3D0UB5R	1352250762		Safari-5.1	United States	74.71.96.74	2	261	62	0		1	1	20A3TK9CLBA65ZZE	8	2ZZPCGJ2D21ONAI6FBAPVSI3D0UB5R	1352250770		Safari-5.1	United States	74.71.96.74	3	361	140	0		1	1	30A3TK9CLBA65ZZE	8	2ZZPCGJ2D21ONAI6FBAPVSI3D0UB5R	1352250778		Safari-5.1	United States	74.71.96.74	4	335	160	0		1	1	40A3TK9CLBA65ZZE	8	2ZZPCGJ2D21ONAI6FBAPVSI3D0UB5R	1352250785		Safari-5.1	United States	74.71.96.74	5	150	80	0		1	1	50A3TK9CLBA65ZZE	8	2ZZPCGJ2D21ONAI6FBAPVSI3D0UB5R	1352250792		Safari-5.1	United States	74.71.96.74	6	148	53	0		1	1	60A3TK9CLBA65ZZE	8	2ZZPCGJ2D21ONAI6FBAPVSI3D0UB5R	1352250798		Safari-5.1	United States	74.71.96.74	7	364	200	0		1	1	70A3TK9CLBA65ZZE	8	2ZZPCGJ2D21ONAI6FBAPVSI3D0UB5R	1352250806		Safari-5.1	United States	74.71.96.74	8	498	240	0		1	1	80A3TK9CLBA65ZZE	8	2ZZPCGJ2D21ONAI6FBAPVSI3D0UB5R	1352250815		Safari-5.1	United States	74.71.96.74	9	266	201	0		1	1	90A3TK9CLBA65ZZE	8	2ZZPCGJ2D21ONAI6FBAPVSI3D0UB5R	1352250823		Safari-5.1	United States	74.71.96.74	10	286	150	0		1	1	100A3TK9CLBA65ZZE	8	2ZZPCGJ2D21ONAI6FBAPVSI3D0UB5R	1352250829		Safari-5.1	United States	74.71.96.74	11	169	96	274		1	2	110A3TK9CLBA65ZZE	8	2ZZPCGJ2D21ONAI6FBAPVSI3D0UB5R	1352250840		Safari-5.1	United States	74.71.96.74	12	113	274	174		1	2	120A3TK9CLBA65ZZE	8	2ZZPCGJ2D21ONAI6FBAPVSI3D0UB5R	1352250852		Safari-5.1	United States	74.71.96.74	13	420	200	758		1	2	130A3TK9CLBA65ZZE	8	2ZZPCGJ2D21ONAI6FBAPVSI3D0UB5R	1352250860		Safari-5.1	United States	74.71.96.74	14	166	140	268		1	2	140A3TK9CLBA65ZZE	8	2ZZPCGJ2D21ONAI6FBAPVSI3D0UB5R	1352250867		Safari-5.1	United States	74.71.96.74	15	87	56	129		1	2	150A3TK9CLBA65ZZE	8	2ZZPCGJ2D21ONAI6FBAPVSI3D0UB5R	1352250873		Safari-5.1	United States	74.71.96.74	16	246	212	418		1	2	160A3TK9CLBA65ZZE	8	2ZZPCGJ2D21ONAI6FBAPVSI3D0UB5R	1352250885		Safari-5.1	United States	74.71.96.74	17	119	522	184		1	2	170A3TK9CLBA65ZZE	8	2ZZPCGJ2D21ONAI6FBAPVSI3D0UB5R	1352250892		Safari-5.1	United States	74.71.96.74	18	260	240	444		1	2	180A3TK9CLBA65ZZE	8	2ZZPCGJ2D21ONAI6FBAPVSI3D0UB5R	1352250900		Safari-5.1	United States	74.71.96.74	19	188	328	309		1	2	190A3TK9CLBA65ZZE	8	2ZZPCGJ2D21ONAI6FBAPVSI3D0UB5R	1352250909		Safari-5.1	United States	74.71.96.74	20	317	310	554		1	2	200A3TK9CLBA65ZZE	8	2ZZPCGJ2D21ONAI6FBAPVSI3D0UB5R	1352250916		Safari-5.1	United States	74.71.96.74	21	325	500	0		1	3	210A3TK9CLBA65ZZE	8	2ZZPCGJ2D21ONAI6FBAPVSI3D0UB5R	1352250923		Safari-5.1	United States	74.71.96.74	22	272	420	0		1	3	220A3TK9CLBA65ZZE	8	2ZZPCGJ2D21ONAI6FBAPVSI3D0UB5R	1352250929		Safari-5.1	United States	74.71.96.74	23	99	100	0		1	3	230A3TK9CLBA65ZZE	8	2ZZPCGJ2D21ONAI6FBAPVSI3D0UB5R	1352250936		Safari-5.1	United States	74.71.96.74	24	57	240	0		1	3	240A3TK9CLBA65ZZE	8	2ZZPCGJ2D21ONAI6FBAPVSI3D0UB5R	1352250943		Safari-5.1	United States	74.71.96.74	25	221	350	0		1	3	250A3TK9CLBA65ZZE	8	2ZZPCGJ2D21ONAI6FBAPVSI3D0UB5R	1352250948		Safari-5.1	United States	74.71.96.74	26	18	17	0		1	3	260A3TK9CLBA65ZZE	8	2ZZPCGJ2D21ONAI6FBAPVSI3D0UB5R	1352250955		Safari-5.1	United States	74.71.96.74	27	38	39	0		1	3	270A3TK9CLBA65ZZE	8	2ZZPCGJ2D21ONAI6FBAPVSI3D0UB5R	1352250961		Safari-5.1	United States	74.71.96.74	28	485	600	0		1	3	280A3TK9CLBA65ZZE	8	2ZZPCGJ2D21ONAI6FBAPVSI3D0UB5R	1352250969		Safari-5.1	United States	74.71.96.74	29	445	700	0		1	3	290A3TK9CLBA65ZZE	8	2ZZPCGJ2D21ONAI6FBAPVSI3D0UB5R	1352250975		Safari-5.1	United States	74.71.96.74	30	91	120	0		1	3	300A3TK9CLBA65ZZE	8	2ZZPCGJ2D21ONAI6FBAPVSI3D0UB5R	1352250981		Safari-5.1	United States	74.71.96.74	31	405	450	0		1	0	310A3NXXKUNDI4NJ0	2XLBJ3MMDX5F9L0F0V8BFMD0H6LZD8	2WTNFSVGULF3TJ554Y71LS3ORQJ8M1	1352264772		Firefox-16	United States	24.239.203.10	1	78	50	0	8395	0	1	4A3NXXKUNDI4NJ0	2XLBJ3MMDX5F9L0F0V8BFMD0H6LZD8	2WTNFSVGULF3TJ554Y71LS3ORQJ8M1	1352264779		Firefox-16	United States	24.239.203.10	2	15	15	0	5277	0	1	14A3NXXKUNDI4NJ0	2XLBJ3MMDX5F9L0F0V8BFMD0H6LZD8	2WTNFSVGULF3TJ554Y71LS3ORQJ8M1	1352264785		Firefox-16	United States	24.239.203.10	3	22	23	0	3510	0	1	24A3NXXKUNDI4NJ0	2XLBJ3MMDX5F9L0F0V8BFMD0H6LZD8	2WTNFSVGULF3TJ554Y71LS3ORQJ8M1	1352264791		Firefox-16	United States	24.239.203.10	4	348	159	0	4293	0	1	25A3NXXKUNDI4NJ0	2XLBJ3MMDX5F9L0F0V8BFMD0H6LZD8	2WTNFSVGULF3TJ554Y71LS3ORQJ8M1	1352264796		Firefox-16	United States	24.239.203.10	5	466	200	0	2453	0	1	25A3NXXKUNDI4NJ0	2XLBJ3MMDX5F9L0F0V8BFMD0H6LZD8	2WTNFSVGULF3TJ554Y71LS3ORQJ8M1	1352264803		Firefox-16	United States	24.239.203.10	6	97	95	0	4396	0	1	35A3NXXKUNDI4NJ0	2XLBJ3MMDX5F9L0F0V8BFMD0H6LZD8	2WTNFSVGULF3TJ554Y71LS3ORQJ8M1	1352264808		Firefox-16	United States	24.239.203.10	7	323	125	0	2571	0	1	35A3NXXKUNDI4NJ0	2XLBJ3MMDX5F9L0F0V8BFMD0H6LZD8	2WTNFSVGULF3TJ554Y71LS3ORQJ8M1	1352264813		Firefox-16	United States	24.239.203.10	8	9	9	0	2938	0	1	45A3NXXKUNDI4NJ0	2XLBJ3MMDX5F9L0F0V8BFMD0H6LZD8	2WTNFSVGULF3TJ554Y71LS3ORQJ8M1	1352264818		Firefox-16	United States	24.239.203.10	9	387	135	0	3041	0	1	45A3NXXKUNDI4NJ0	2XLBJ3MMDX5F9L0F0V8BFMD0H6LZD8	2WTNFSVGULF3TJ554Y71LS3ORQJ8M1	1352264826		Firefox-16	United States	24.239.203.10	10	185	120	0	5003	0	1	49A3NXXKUNDI4NJ0	2XLBJ3MMDX5F9L0F0V8BFMD0H6LZD8	2WTNFSVGULF3TJ554Y71LS3ORQJ8M1	1352264832		Firefox-16	United States	24.239.203.10	11	379	140	0	4066	0	1	49A3NXXKUNDI4NJ0	2XLBJ3MMDX5F9L0F0V8BFMD0H6LZD8	2WTNFSVGULF3TJ554Y71LS3ORQJ8M1	1352264837		Firefox-16	United States	24.239.203.10	12	177	98	0	3363	0	1	51A3NXXKUNDI4NJ0	2XLBJ3MMDX5F9L0F0V8BFMD0H6LZD8	2WTNFSVGULF3TJ554Y71LS3ORQJ8M1	1352264843		Firefox-16	United States	24.239.203.10	13	11	11	0	3303	0	1	61A3NXXKUNDI4NJ0	2XLBJ3MMDX5F9L0F0V8BFMD0H6LZD8	2WTNFSVGULF3TJ554Y71LS3ORQJ8M1	1352264851		Firefox-16	United States	24.239.203.10	14	404	160	0	5127	0	1	61A3NXXKUNDI4NJ0	2XLBJ3MMDX5F9L0F0V8BFMD0H6LZD8	2WTNFSVGULF3TJ554Y71LS3ORQJ8M1	1352264856		Firefox-16	United States	24.239.203.10	15	465	200	0	2687	0	1	61A3NXXKUNDI4NJ0	2XLBJ3MMDX5F9L0F0V8BFMD0H6LZD8	2WTNFSVGULF3TJ554Y71LS3ORQJ8M1	1352264860		Firefox-16	United States	24.239.203.10	16	356	100	0	2724	0	1	61A3NXXKUNDI4NJ0	2XLBJ3MMDX5F9L0F0V8BFMD0H6LZD8	2WTNFSVGULF3TJ554Y71LS3ORQJ8M1	1352264877		Firefox-16	United States	24.239.203.10	17	136	65	0	13682	0	1	62A3NXXKUNDI4NJ0	2XLBJ3MMDX5F9L0F0V8BFMD0H6LZD8	2WTNFSVGULF3TJ554Y71LS3ORQJ8M1	1352264882		Firefox-16	United States	24.239.203.10	18	444	111	0	3418	0	1	62A3NXXKUNDI4NJ0	2XLBJ3MMDX5F9L0F0V8BFMD0H6LZD8	2WTNFSVGULF3TJ554Y71LS3ORQJ8M1	1352264893		Firefox-16	United States	24.239.203.10	19	363	105	0	8729	0	1	62A3NXXKUNDI4NJ0	2XLBJ3MMDX5F9L0F0V8BFMD0H6LZD8	2WTNFSVGULF3TJ554Y71LS3ORQJ8M1	1352264899		Firefox-16	United States	24.239.203.10	20	196	95	0	3437	0	1	63A3NXXKUNDI4NJ0	2XLBJ3MMDX5F9L0F0V8BFMD0H6LZD8	2WTNFSVGULF3TJ554Y71LS3ORQJ8M1	1352264905		Firefox-16	United States	24.239.203.10	21	66	32	0	3873	0	1	64A3NXXKUNDI4NJ0	2XLBJ3MMDX5F9L0F0V8BFMD0H6LZD8	2WTNFSVGULF3TJ554Y71LS3ORQJ8M1	1352264913		Firefox-16	United States	24.239.203.10	22	368	106	0	5153	0	1	64A3NXXKUNDI4NJ0	2XLBJ3MMDX5F9L0F0V8BFMD0H6LZD8	2WTNFSVGULF3TJ554Y71LS3ORQJ8M1	1352264919		Firefox-16	United States	24.239.203.10	23	25	23	0	3486	0	1	74A3NXXKUNDI4NJ0	2XLBJ3MMDX5F9L0F0V8BFMD0H6LZD8	2WTNFSVGULF3TJ554Y71LS3ORQJ8M1	1352264924		Firefox-16	United States	24.239.203.10	24	462	125	0	3417	0	1	74A3NXXKUNDI4NJ0	2XLBJ3MMDX5F9L0F0V8BFMD0H6LZD8	2WTNFSVGULF3TJ554Y71LS3ORQJ8M1	1352264932		Firefox-16	United States	24.239.203.10	25	373	140	0	5019	0	1	74A3NXXKUNDI4NJ0	2XLBJ3MMDX5F9L0F0V8BFMD0H6LZD8	2WTNFSVGULF3TJ554Y71LS3ORQJ8M1	1352264938		Firefox-16	United States	24.239.203.10	26	86	43	0	3935	0	1	75A3NXXKUNDI4NJ0	2XLBJ3MMDX5F9L0F0V8BFMD0H6LZD8	2WTNFSVGULF3TJ554Y71LS3ORQJ8M1	1352264943		Firefox-16	United States	24.239.203.10	27	285	100	0	2696	0	1	75A3NXXKUNDI4NJ0	2XLBJ3MMDX5F9L0F0V8BFMD0H6LZD8	2WTNFSVGULF3TJ554Y71LS3ORQJ8M1	1352264964		Firefox-16	United States	24.239.203.10	28	471	101	0	17960	0	1	75A3NXXKUNDI4NJ0	2XLBJ3MMDX5F9L0F0V8BFMD0H6LZD8	2WTNFSVGULF3TJ554Y71LS3ORQJ8M1	1352264969		Firefox-16	United States	24.239.203.10	29	270	125	0	2803	0	1	76A3NXXKUNDI4NJ0	2XLBJ3MMDX5F9L0F0V8BFMD0H6LZD8	2WTNFSVGULF3TJ554Y71LS3ORQJ8M1	1352264975		Firefox-16	United States	24.239.203.10	30	112	72	0	3493	0	1	80A3NXXKUNDI4NJ0	2XLBJ3MMDX5F9L0F0V8BFMD0H6LZD8	2WTNFSVGULF3TJ554Y71LS3ORQJ8M1	1352264981		Firefox-16	United States	24.239.203.10	31	372	125	372	4390	0	2	80A3NXXKUNDI4NJ0	2XLBJ3MMDX5F9L0F0V8BFMD0H6LZD8	2WTNFSVGULF3TJ554Y71LS3ORQJ8M1	1352264989		Firefox-16	United States	24.239.203.10	32	253	150	253	5863	0	2	83A3NXXKUNDI4NJ0	2XLBJ3MMDX5F9L0F0V8BFMD0H6LZD8	2WTNFSVGULF3TJ554Y71LS3ORQJ8M1	1352264994		Firefox-16	United States	24.239.203.10	33	378	300	378	2140	0	2	91A3NXXKUNDI4NJ0	2XLBJ3MMDX5F9L0F0V8BFMD0H6LZD8	2WTNFSVGULF3TJ554Y71LS3ORQJ8M1	1352265001		Firefox-16	United States	24.239.203.10	34	27	28	27	4742	0	2	101A3NXXKUNDI4NJ0	2XLBJ3MMDX5F9L0F0V8BFMD0H6LZD8	2WTNFSVGULF3TJ554Y71LS3ORQJ8M1	1352265007		Firefox-16	United States	24.239.203.10	35	426	300	426	3105	0	2	107A3NXXKUNDI4NJ0	2XLBJ3MMDX5F9L0F0V8BFMD0H6LZD8	2WTNFSVGULF3TJ554Y71LS3ORQJ8M1	1352265012		Firefox-16	United States	24.239.203.10	36	202	205	202	3340	0	2	117A3NXXKUNDI4NJ0	2XLBJ3MMDX5F9L0F0V8BFMD0H6LZD8	2WTNFSVGULF3TJ554Y71LS3ORQJ8M1	1352265019		Firefox-16	United States	24.239.203.10	37	126	150	126	3979	0	2	126A3NXXKUNDI4NJ0	2XLBJ3MMDX5F9L0F0V8BFMD0H6LZD8	2WTNFSVGULF3TJ554Y71LS3ORQJ8M1	1352265027		Firefox-16	United States	24.239.203.10	38	203	150	203	5649	0	2	133A3NXXKUNDI4NJ0	2XLBJ3MMDX5F9L0F0V8BFMD0H6LZD8	2WTNFSVGULF3TJ554Y71LS3ORQJ8M1	1352265032		Firefox-16	United States	24.239.203.10	39	452	325	452	2578	0	2	139A3NXXKUNDI4NJ0	2XLBJ3MMDX5F9L0F0V8BFMD0H6LZD8	2WTNFSVGULF3TJ554Y71LS3ORQJ8M1	1352265039		Firefox-16	United States	24.239.203.10	40	446	380	446	4676	0	2	148A3NXXKUNDI4NJ0	2XLBJ3MMDX5F9L0F0V8BFMD0H6LZD8	2WTNFSVGULF3TJ554Y71LS3ORQJ8M1	1352265045		Firefox-16	United States	24.239.203.10	41	81	215	81	3821	0	2	148A3NXXKUNDI4NJ0	2XLBJ3MMDX5F9L0F0V8BFMD0H6LZD8	2WTNFSVGULF3TJ554Y71LS3ORQJ8M1	1352265052		Firefox-16	United States	24.239.203.10	42	21	39	21	4245	0	2	150A3NXXKUNDI4NJ0	2XLBJ3MMDX5F9L0F0V8BFMD0H6LZD8	2WTNFSVGULF3TJ554Y71LS3ORQJ8M1	1352265057		Firefox-16	United States	24.239.203.10	43	333	250	333	2774	0	2	157A3NXXKUNDI4NJ0	2XLBJ3MMDX5F9L0F0V8BFMD0H6LZD8	2WTNFSVGULF3TJ554Y71LS3ORQJ8M1	1352265064		Firefox-16	United States	24.239.203.10	44	197	140	197	4144	0	2	163A3NXXKUNDI4NJ0	2XLBJ3MMDX5F9L0F0V8BFMD0H6LZD8	2WTNFSVGULF3TJ554Y71LS3ORQJ8M1	1352265070		Firefox-16	United States	24.239.203.10	45	316	305	316	3462	0	2	173A3NXXKUNDI4NJ0	2XLBJ3MMDX5F9L0F0V8BFMD0H6LZD8	2WTNFSVGULF3TJ554Y71LS3ORQJ8M1	1352265075		Firefox-16	United States	24.239.203.10	46	367	310	367	3531	0	2	182A3NXXKUNDI4NJ0	2XLBJ3MMDX5F9L0F0V8BFMD0H6LZD8	2WTNFSVGULF3TJ554Y71LS3ORQJ8M1	1352265081		Firefox-16	United States	24.239.203.10	47	246	300	246	3646	0	2	190A3NXXKUNDI4NJ0	2XLBJ3MMDX5F9L0F0V8BFMD0H6LZD8	2WTNFSVGULF3TJ554Y71LS3ORQJ8M1	1352265088		Firefox-16	United States	24.239.203.10	48	59	52	59	4614	0	2	199A3NXXKUNDI4NJ0	2XLBJ3MMDX5F9L0F0V8BFMD0H6LZD8	2WTNFSVGULF3TJ554Y71LS3ORQJ8M1	1352265094		Firefox-16	United States	24.239.203.10	49	60	70	60	3350	0	2	208A3NXXKUNDI4NJ0	2XLBJ3MMDX5F9L0F0V8BFMD0H6LZD8	2WTNFSVGULF3TJ554Y71LS3ORQJ8M1	1352265102		Firefox-16	United States	24.239.203.10	50	92	85	92	6032	0	2	218A3NXXKUNDI4NJ0	2XLBJ3MMDX5F9L0F0V8BFMD0H6LZD8	2WTNFSVGULF3TJ554Y71LS3ORQJ8M1	1352265107		Firefox-16	United States	24.239.203.10	51	295	300	295	2595	0	2	228A3NXXKUNDI4NJ0	2XLBJ3MMDX5F9L0F0V8BFMD0H6LZD8	2WTNFSVGULF3TJ554Y71LS3ORQJ8M1	1352265112		Firefox-16	United States	24.239.203.10	52	467	325	467	2692	0	2	234A3NXXKUNDI4NJ0	2XLBJ3MMDX5F9L0F0V8BFMD0H6LZD8	2WTNFSVGULF3TJ554Y71LS3ORQJ8M1	1352265119		Firefox-16	United States	24.239.203.10	53	164	225	164	4633	0	2	240A3NXXKUNDI4NJ0	2XLBJ3MMDX5F9L0F0V8BFMD0H6LZD8	2WTNFSVGULF3TJ554Y71LS3ORQJ8M1	1352265124		Firefox-16	United States	24.239.203.10	54	490	400	490	2886	0	2	248A3NXXKUNDI4NJ0	2XLBJ3MMDX5F9L0F0V8BFMD0H6LZD8	2WTNFSVGULF3TJ554Y71LS3ORQJ8M1	1352265131		Firefox-16	United States	24.239.203.10	55	233	224	233	3809	0	2	258A3NXXKUNDI4NJ0	2XLBJ3MMDX5F9L0F0V8BFMD0H6LZD8	2WTNFSVGULF3TJ554Y71LS3ORQJ8M1	1352265142		Firefox-16	United States	24.239.203.10	56	496	260	496	8899	0	2	260A3NXXKUNDI4NJ0	2XLBJ3MMDX5F9L0F0V8BFMD0H6LZD8	2WTNFSVGULF3TJ554Y71LS3ORQJ8M1	1352265148		Firefox-16	United States	24.239.203.10	57	427	360	427	4239	0	2	269A3NXXKUNDI4NJ0	2XLBJ3MMDX5F9L0F0V8BFMD0H6LZD8	2WTNFSVGULF3TJ554Y71LS3ORQJ8M1	1352265153		Firefox-16	United States	24.239.203.10	58	19	15	19	2487	0	2	277A3NXXKUNDI4NJ0	2XLBJ3MMDX5F9L0F0V8BFMD0H6LZD8	2WTNFSVGULF3TJ554Y71LS3ORQJ8M1	1352265158		Firefox-16	United States	24.239.203.10	59	23	24	23	2857	0	2	287A3NXXKUNDI4NJ0	2XLBJ3MMDX5F9L0F0V8BFMD0H6LZD8	2WTNFSVGULF3TJ554Y71LS3ORQJ8M1	1352265163		Firefox-16	United States	24.239.203.10	60	488	425	488	2988	0	2	296A3NXXKUNDI4NJ0	2XLBJ3MMDX5F9L0F0V8BFMD0H6LZD8	2WTNFSVGULF3TJ554Y71LS3ORQJ8M1	1352265169		Firefox-16	United States	24.239.203.10	61	469	480	0	3647	0	3	306A3NXXKUNDI4NJ0	2XLBJ3MMDX5F9L0F0V8BFMD0H6LZD8	2WTNFSVGULF3TJ554Y71LS3ORQJ8M1	1352265175		Firefox-16	United States	24.239.203.10	62	319	350	0	3754	0	3	316A3NXXKUNDI4NJ0	2XLBJ3MMDX5F9L0F0V8BFMD0H6LZD8	2WTNFSVGULF3TJ554Y71LS3ORQJ8M1	1352265182		Firefox-16	United States	24.239.203.10	63	244	220	0	4927	0	3	326A3NXXKUNDI4NJ0	2XLBJ3MMDX5F9L0F0V8BFMD0H6LZD8	2WTNFSVGULF3TJ554Y71LS3ORQJ8M1	1352265187		Firefox-16	United States	24.239.203.10	64	453	300	0	2156	0	3	331A3NXXKUNDI4NJ0	2XLBJ3MMDX5F9L0F0V8BFMD0H6LZD8	2WTNFSVGULF3TJ554Y71LS3ORQJ8M1	1352265192		Firefox-16	United States	24.239.203.10	65	499	305	0	2524	0	3	334A3NXXKUNDI4NJ0	2XLBJ3MMDX5F9L0F0V8BFMD0H6LZD8	2WTNFSVGULF3TJ554Y71LS3ORQJ8M1	1352265197		Firefox-16	United States	24.239.203.10	66	404	300	0	3001	0	3	341A3NXXKUNDI4NJ0	2XLBJ3MMDX5F9L0F0V8BFMD0H6LZD8	2WTNFSVGULF3TJ554Y71LS3ORQJ8M1	1352265203		Firefox-16	United States	24.239.203.10	67	90	120	0	3526	0	3	348A3NXXKUNDI4NJ0	2XLBJ3MMDX5F9L0F0V8BFMD0H6LZD8	2WTNFSVGULF3TJ554Y71LS3ORQJ8M1	1352265208		Firefox-16	United States	24.239.203.10	68	498	300	0	2740	0	3	351A3NXXKUNDI4NJ0	2XLBJ3MMDX5F9L0F0V8BFMD0H6LZD8	2WTNFSVGULF3TJ554Y71LS3ORQJ8M1	1352265215		Firefox-16	United States	24.239.203.10	69	186	225	0	4327	0	3	360A3NXXKUNDI4NJ0	2XLBJ3MMDX5F9L0F0V8BFMD0H6LZD8	2WTNFSVGULF3TJ554Y71LS3ORQJ8M1	1352265219		Firefox-16	United States	24.239.203.10	70	402	300	0	2360	0	3	367A3NXXKUNDI4NJ0	2XLBJ3MMDX5F9L0F0V8BFMD0H6LZD8	2WTNFSVGULF3TJ554Y71LS3ORQJ8M1	1352265226		Firefox-16	United States	24.239.203.10	71	431	380	0	4125	0	3	376A3NXXKUNDI4NJ0	2XLBJ3MMDX5F9L0F0V8BFMD0H6LZD8	2WTNFSVGULF3TJ554Y71LS3ORQJ8M1	1352265232		Firefox-16	United States	24.239.203.10	72	409	350	0	3839	0	3	385A3NXXKUNDI4NJ0	2XLBJ3MMDX5F9L0F0V8BFMD0H6LZD8	2WTNFSVGULF3TJ554Y71LS3ORQJ8M1	1352265238		Firefox-16	United States	24.239.203.10	73	101	105	0	3558	0	3	395A3NXXKUNDI4NJ0	2XLBJ3MMDX5F9L0F0V8BFMD0H6LZD8	2WTNFSVGULF3TJ554Y71LS3ORQJ8M1	1352265243		Firefox-16	United States	24.239.203.10	74	178	209	0	3362	0	3	404A3NXXKUNDI4NJ0	2XLBJ3MMDX5F9L0F0V8BFMD0H6LZD8	2WTNFSVGULF3TJ554Y71LS3ORQJ8M1	1352265250		Firefox-16	United States	24.239.203.10	75	284	230	0	4111	0	3	412A3NXXKUNDI4NJ0	2XLBJ3MMDX5F9L0F0V8BFMD0H6LZD8	2WTNFSVGULF3TJ554Y71LS3ORQJ8M1	1352265255		Firefox-16	United States	24.239.203.10	76	413	350	0	2529	0	3	421A3NXXKUNDI4NJ0	2XLBJ3MMDX5F9L0F0V8BFMD0H6LZD8	2WTNFSVGULF3TJ554Y71LS3ORQJ8M1	1352265260		Firefox-16	United States	24.239.203.10	77	233	300	0	2758	0	3	429A3NXXKUNDI4NJ0	2XLBJ3MMDX5F9L0F0V8BFMD0H6LZD8	2WTNFSVGULF3TJ554Y71LS3ORQJ8M1	1352265265		Firefox-16	United States	24.239.203.10	78	440	410	0	2910	0	3	439A3NXXKUNDI4NJ0	2XLBJ3MMDX5F9L0F0V8BFMD0H6LZD8	2WTNFSVGULF3TJ554Y71LS3ORQJ8M1	1352265270		Firefox-16	United States	24.239.203.10	79	276	240	0	3192	0	3	448