workerId;assignmentId;hitId;curtime;OSName;browserName;country;IP;trialn;shown;response;feedback;responseTime;fbcondition;phase;score
A3E63RE3CI5ZH5;2JM8P9Y38TWWHWG1S99M6JTD9KZIZH;2JMSMEZZ2MIK61M3600Y98TXP575MV;1352404856;Windows;Chrome-23;United States;75.145.245.85;1;341;105;341;9582;-1;-1;0
A3E63RE3CI5ZH5;2JM8P9Y38TWWHWG1S99M6JTD9KZIZH;2JMSMEZZ2MIK61M3600Y98TXP575MV;1352404862;Windows;Chrome-23;United States;75.145.245.85;2;498;105;498;3516;-1;-1;0
A85EHBX1CKMI2;2SY2NJQ2172ZTN3Q4MBLIVEENYVPX2;2JMSMEZZ2MIK61M3600Y98TXP575MV;1352404868;Mac;Firefox-16;United States;24.13.106.19;1;74;0;74;7790;-1;-1;0
A3E63RE3CI5ZH5;2JM8P9Y38TWWHWG1S99M6JTD9KZIZH;2JMSMEZZ2MIK61M3600Y98TXP575MV;1352404868;Windows;Chrome-23;United States;75.145.245.85;3;105;200;105;3251;-1;-1;2
A85EHBX1CKMI2;2SY2NJQ2172ZTN3Q4MBLIVEENYVPX2;2JMSMEZZ2MIK61M3600Y98TXP575MV;1352404873;Mac;Firefox-16;United States;24.13.106.19;2;22;14;22;3304;-1;-1;4
A3PN2086LSLDV9;2LW9F9SSSHX1LX1WQ4WHBF8MXLHUY9;2JMSMEZZ2MIK61M3600Y98TXP575MV;1352404873;;;United States;72.73.110.253;1;69;45;69;;0;-1;0
A3E63RE3CI5ZH5;2JM8P9Y38TWWHWG1S99M6JTD9KZIZH;2JMSMEZZ2MIK61M3600Y98TXP575MV;1352404875;Windows;Chrome-23;United States;75.145.245.85;4;43;50;43;3409;-1;-1;11
A3PN2086LSLDV9;2LW9F9SSSHX1LX1WQ4WHBF8MXLHUY9;2JMSMEZZ2MIK61M3600Y98TXP575MV;1352404880;;;United States;72.73.110.253;2;82;37;82;;0;-1;0
A85EHBX1CKMI2;2SY2NJQ2172ZTN3Q4MBLIVEENYVPX2;2JMSMEZZ2MIK61M3600Y98TXP575MV;1352404880;Mac;Firefox-16;United States;24.13.106.19;3;33;36;33;4511;-1;-1;14
A3E63RE3CI5ZH5;2JM8P9Y38TWWHWG1S99M6JTD9KZIZH;2JMSMEZZ2MIK61M3600Y98TXP575MV;1352404880;Windows;Chrome-23;United States;75.145.245.85;5;50;55;50;2770;-1;-1;21
A3PN2086LSLDV9;2LW9F9SSSHX1LX1WQ4WHBF8MXLHUY9;2JMSMEZZ2MIK61M3600Y98TXP575MV;1352404885;;;United States;72.73.110.253;3;341;69;341;;0;-1;0
A3E63RE3CI5ZH5;2JM8P9Y38TWWHWG1S99M6JTD9KZIZH;2JMSMEZZ2MIK61M3600Y98TXP575MV;1352404885;Windows;Chrome-23;United States;75.145.245.85;6;136;103;136;2958;-1;-1;28
A85EHBX1CKMI2;2SY2NJQ2172ZTN3Q4MBLIVEENYVPX2;2JMSMEZZ2MIK61M3600Y98TXP575MV;1352404886;Mac;Firefox-16;United States;24.13.106.19;4;68;45;68;3586;-1;-1;19
A3PN2086LSLDV9;2LW9F9SSSHX1LX1WQ4WHBF8MXLHUY9;2JMSMEZZ2MIK61M3600Y98TXP575MV;1352404888;;;United States;72.73.110.253;4;130;83;130;;0;-1;0
ALEW8U625N446;2JJNDWIOV1S7C1GMRRL19YD21K1IXK;2JMSMEZZ2MIK61M3600Y98TXP575MV;1352404889;Windows;Firefox-14;Iceland;101.61.112.153;1;102;100;102;11738;-1;-1;10
A2N2KQXUPLNDWI;25CCJ011K2743LMTO7X1EN49NU7AC5;2JMSMEZZ2MIK61M3600Y98TXP575MV;1352404890;Windows;Firefox-16;United States;24.173.74.242;1;23;100;23;9969;-1;-1;0
A2QLSHXNCHBRN4;2MGK2JE1M7PK4NY0UHFZGC07EWPPW9;2JMSMEZZ2MIK61M3600Y98TXP575MV;1352404891;Windows;Firefox-16;United States;24.60.89.121;1;34;20;34;3495;-1;-1;3
A3E63RE3CI5ZH5;2JM8P9Y38TWWHWG1S99M6JTD9KZIZH;2JMSMEZZ2MIK61M3600Y98TXP575MV;1352404891;Windows;Chrome-23;United States;75.145.245.85;7;468;450;468;3065;-1;-1;38
A3PN2086LSLDV9;2LW9F9SSSHX1LX1WQ4WHBF8MXLHUY9;2JMSMEZZ2MIK61M3600Y98TXP575MV;1352404891;;;United States;72.73.110.253;5;173;32;173;;0;-1;0
A85EHBX1CKMI2;2SY2NJQ2172ZTN3Q4MBLIVEENYVPX2;2JMSMEZZ2MIK61M3600Y98TXP575MV;1352404893;Mac;Firefox-16;United States;24.13.106.19;5;189;134;189;4217;-1;-1;25
A2WB6PTJR698VP;23EOFXRDS4ICLSBML8AFS11DVFNUX3;2JMSMEZZ2MIK61M3600Y98TXP575MV;1352404896;Windows;Chrome-23;Macedonia, The Former Yugoslav Republic A3PN2086LSLDV9;2LW9F9SSSHX1LX1WQ4WHBF8MXLHUY9;2JMSMEZZ2MIK61M3600Y98TXP575MV;1352404896;;;United States;72.73.110.253;6;19;346;19;;0;-1;0
A2QLSHXNCHBRN4;2MGK2JE1M7PK4NY0UHFZGC07EWPPW9;2JMSMEZZ2MIK61M3600Y98TXP575MV;1352404896;Windows;Firefox-16;United States;24.60.89.121;2;357;205;357;2693;-1;-1;6
A3E63RE3CI5ZH5;2JM8P9Y38TWWHWG1S99M6JTD9KZIZH;2JMSMEZZ2MIK61M3600Y98TXP575MV;1352404896;Windows;Chrome-23;United States;75.145.245.85;8;321;400;321;2620;-1;-1;46
A85EHBX1CKMI2;2SY2NJQ2172ZTN3Q4MBLIVEENYVPX2;2JMSMEZZ2MIK61M3600Y98TXP575MV;1352404899;Mac;Firefox-16;United States;24.13.106.19;6;87;67;87;3435;-1;-1;32
ALEW8U625N446;2JJNDWIOV1S7C1GMRRL19YD21K1IXK;2JMSMEZZ2MIK61M3600Y98TXP575MV;1352404899;Windows;Firefox-14;Iceland;101.61.112.153;2;183;100;183;6088;-1;-1;12
A3PN2086LSLDV9;2LW9F9SSSHX1LX1WQ4WHBF8MXLHUY9;2JMSMEZZ2MIK61M3600Y98TXP575MV;1352404899;;;United States;72.73.110.253;7;35;78;35;;0;-1;0
A2B3YHRCG8QT00;2BG3W5XH0JPPCWFTWPGLYP78DIEKEN;2JMSMEZZ2MIK61M3600Y98TXP575MV;1352404900;Windows;Chrome-23;United States;98.111.132.148;1;179;45;179;8112;1;-1;0
A2N2KQXUPLNDWI;25CCJ011K2743LMTO7X1EN49NU7AC5;2JMSMEZZ2MIK61M3600Y98TXP575MV;1352404900;Windows;Firefox-16;United States;24.173.74.242;2;54;150;54;8091;-1;-1;0
A3E63RE3CI5ZH5;2JM8P9Y38TWWHWG1S99M6JTD9KZIZH;2JMSMEZZ2MIK61M3600Y98TXP575MV;1352404901;Windows;Chrome-23;United States;75.145.245.85;9;456;500;456;1887;-1;-1;56
A2WB6PTJR698VP;23EOFXRDS4ICLSBML8AFS11DVFNUX3;2JMSMEZZ2MIK61M3600Y98TXP575MV;1352404903;Windows;Chrome-23;Macedonia, The Former Yugoslav Republic of;95.86.9.112;2;36;60;36;5323;-1;-1;3
A3PN2086LSLDV9;2LW9F9SSSHX1LX1WQ4WHBF8MXLHUY9;2JMSMEZZ2MIK61M3600Y98TXP575MV;1352404904;;;United States;72.73.110.253;8;309;567;309;;0;-1;0
A2B3YHRCG8QT00;2BG3W5XH0JPPCWFTWPGLYP78DIEKEN;2JMSMEZZ2MIK61M3600Y98TXP575MV;1352404904;Windows;Chrome-23;United States;98.111.132.148;2;19;50;19;1628;1;-1;0
A2QLSHXNCHBRN4;2MGK2JE1M7PK4NY0UHFZGC07EWPPW9;2JMSMEZZ2MIK61M3600Y98TXP575MV;1352404904;Windows;Firefox-16;United States;24.60.89.121;3;147;159;147;5582;-1;-1;16
A85EHBX1CKMI2;2SY2NJQ2172ZTN3Q4MBLIVEENYVPX2;2JMSMEZZ2MIK61M3600Y98TXP575MV;1352404904;Mac;Firefox-16;United States;24.13.106.19;7;473;345;473;3624;-1;-1;38
A2B3YHRCG8QT00;2BG3W5XH0JPPCWFTWPGLYP78DIEKEN;2JMSMEZZ2MIK61M3600Y98TXP575MV;1352404906;Windows;Chrome-23;United States;98.111.132.148;2;19;50;19;1628;1;-1;0
A3PN2086LSLDV9;2LW9F9SSSHX1LX1WQ4WHBF8MXLHUY9;2JMSMEZZ2MIK61M3600Y98TXP575MV;1352404906;;;United States;72.73.110.253;8;309;567;309;;0;-1;0
ALEW8U625N446;2JJNDWIOV1S7C1GMRRL19YD21K1IXK;2JMSMEZZ2MIK61M3600Y98TXP575MV;1352404907;Windows;Firefox-14;Iceland;101.61.112.153;3;36;45;36;4299;-1;-1;20
A3E63RE3CI5ZH5;2JM8P9Y38TWWHWG1S99M6JTD9KZIZH;2JMSMEZZ2MIK61M3600Y98TXP575MV;1352404907;Windows;Chrome-23;United States;75.145.245.85;10;75;48;75;3449;-1;-1;60
A2SYRFPPV9WDEG;20TSNQQ7Q670PF3TAYI18TQFUUFAUG;2JMSMEZZ2MIK61M3600Y98TXP575MV;1352404908;Windows;Firefox-19;United States;66.75.77.46;1;264;80;264;4318;-1;-1;0
A3PN2086LSLDV9;2LW9F9SSSHX1LX1WQ4WHBF8MXLHUY9;2JMSMEZZ2MIK61M3600Y98TXP575MV;1352404909;;;United States;72.73.110.253;9;59;76;59;;0;-1;0
A2QLSHXNCHBRN4;2MGK2JE1M7PK4NY0UHFZGC07EWPPW9;2JMSMEZZ2MIK61M3600Y98TXP575MV;1352404910;Windows;Firefox-16;United States;24.60.89.121;4;34;35;34;2783;-1;-1;26
A2WB6PTJR698VP;23EOFXRDS4ICLSBML8AFS11DVFNUX3;2JMSMEZZ2MIK61M3600Y98TXP575MV;1352404910;Windows;Chrome-23;Macedonia, The Former Yugoslav Republic of;95.86.9.112;3;130;60;130;3679;-1;-1;4
A85EHBX1CKMI2;2SY2NJQ2172ZTN3Q4MBLIVEENYVPX2;2JMSMEZZ2MIK61M3600Y98TXP575MV;1352404910;Mac;Firefox-16;United States;24.13.106.19;8;17;26;17;3393;-1;-1;43
A2B3YHRCG8QT00;2BG3W5XH0JPPCWFTWPGLYP78DIEKEN;2JMSMEZZ2MIK61M3600Y98TXP575MV;1352404911;Windows;Chrome-23;United States;98.111.132.148;3;270;70;270;3045;1;-1;0
A3PN2086LSLDV9;2LW9F9SSSHX1LX1WQ4WHBF8MXLHUY9;2JMSMEZZ2MIK61M3600Y98TXP575MV;1352404912;;;United States;72.73.110.253;10;312;54;312;;0;-1;0
A3E63RE3CI5ZH5;2JM8P9Y38TWWHWG1S99M6JTD9KZIZH;2JMSMEZZ2MIK61M3600Y98TXP575MV;1352404912;Windows;Chrome-23;United States;75.145.245.85;11;424;65;0;2606;-1;1;60
A2SYRFPPV9WDEG;20TSNQQ7Q670PF3TAYI18TQFUUFAUG;2JMSMEZZ2MIK61M3600Y98TXP575MV;1352404914;Windows;Firefox-19;United States;66.75.77.46;2;126;100;126;3475;-1;-1;8
A2B3YHRCG8QT00;2BG3W5XH0JPPCWFTWPGLYP78DIEKEN;2JMSMEZZ2MIK61M3600Y98TXP575MV;1352404914;Windows;Chrome-23;United States;98.111.132.148;4;256;0;256;505;1;-1;0
A3PN2086LSLDV9;2LW9F9SSSHX1LX1WQ4WHBF8MXLHUY9;2JMSMEZZ2MIK61M3600Y98TXP575MV;1352404914;;;United States;72.73.110.253;11;43;45;0;;0;1;0
ALEW8U625N446;2JJNDWIOV1S7C1GMRRL19YD21K1IXK;2JMSMEZZ2MIK61M3600Y98TXP575MV;1352404915;Windows;Firefox-14;Iceland;101.61.112.153;4;33;34;33;5052;-1;-1;30
A85EHBX1CKMI2;2SY2NJQ2172ZTN3Q4MBLIVEENYVPX2;2JMSMEZZ2MIK61M3600Y98TXP575MV;1352404916;Mac;Firefox-16;United States;24.13.106.19;9;30;31;30;3091;-1;-1;53
A2QLSHXNCHBRN4;2MGK2JE1M7PK4NY0UHFZGC07EWPPW9;2JMSMEZZ2MIK61M3600Y98TXP575MV;1352404916;Windows;Firefox-16;United States;24.60.89.121;5;181;154;181;3721;-1;-1;35
A2WB6PTJR698VP;23EOFXRDS4ICLSBML8AFS11DVFNUX3;2JMSMEZZ2MIK61M3600Y98TXP575MV;1352404916;Windows;Chrome-23;Macedonia, The Former Yugoslav Republic of;95.86.9.112;4;9;15;9;3934;-1;-1;7
A2N2KQXUPLNDWI;25CCJ011K2743LMTO7X1EN49NU7AC5;2JMSMEZZ2MIK61M3600Y98TXP575MV;1352404917;Windows;Firefox-16;United States;24.173.74.242;3;395;1000;395;14152;-1;-1;0
A3PN2086LSLDV9;2LW9F9SSSHX1LX1WQ4WHBF8MXLHUY9;2JMSMEZZ2MIK61M3600Y98TXP575MV;1352404917;;;United States;72.73.110.253;12;266;34;0;;0;1;0
AVEEXNWYXBSGM;259VKCJ011K2RIWG7VHWC18QX3N8AY;2JMSMEZZ2MIK61M3600Y98TXP575MV;1352404918;Windows;Firefox-16;United States;74.32.9.229;1;59;70;59;6033;0;-1;9
A3E63RE3CI5ZH5;2JM8P9Y38TWWHWG1S99M6JTD9KZIZH;2JMSMEZZ2MIK61M3600Y98TXP575MV;1352404918;Windows;Chrome-23;United States;75.145.245.85;12;388;150;0;3206;-1;1;60
A2B3YHRCG8QT00;2BG3W5XH0JPPCWFTWPGLYP78DIEKEN;2JMSMEZZ2MIK61M3600Y98TXP575MV;1352404919;Windows;Chrome-23;United States;98.111.132.148;5;41;12;41;2490;1;-1;0
A2SYRFPPV9WDEG;20TSNQQ7Q670PF3TAYI18TQFUUFAUG;2JMSMEZZ2MIK61M3600Y98TXP575MV;1352404919;Windows;Firefox-19;United States;66.75.77.46;3;162;150;162;3035;-1;-1;18
A3PN2086LSLDV9;2LW9F9SSSHX1LX1WQ4WHBF8MXLHUY9;2JMSMEZZ2MIK61M3600Y98TXP575MV;1352404921;;;United States;72.73.110.253;13;162;88;0;;0;1;0
A4CAM3DGFATWY;2DGH1XERSQV6Q5YYFTK3NVWDOHB08Z;2JMSMEZZ2MIK61M3600Y98TXP575MV;1352404921;Windows;Firefox-16;United States;75.94.22.70;1;109;104;109;5666;1;-1;10
A85EHBX1CKMI2;2SY2NJQ2172ZTN3Q4MBLIVEENYVPX2;2JMSMEZZ2MIK61M3600Y98TXP575MV;1352404922;Mac;Firefox-16;United States;24.13.106.19;10;465;487;465;3518;-1;-1;63
A1QSV6T2K6P8NU;2CYDG67D1X3VKTX9AZB2PE1P0MCHAL;2JMSMEZZ2MIK61M3600Y98TXP575MV;1352404923;Windows;Chrome-23;United States;75.64.167.15;1;59;65;59;12818;1;-1;10
A2QLSHXNCHBRN4;2MGK2JE1M7PK4NY0UHFZGC07EWPPW9;2JMSMEZZ2MIK61M3600Y98TXP575MV;1352404923;Windows;Firefox-16;United States;24.60.89.121;6;15;23;15;4785;-1;-1;40
A3E63RE3CI5ZH5;2JM8P9Y38TWWHWG1S99M6JTD9KZIZH;2JMSMEZZ2MIK61M3600Y98TXP575MV;1352404923;Windows;Chrome-23;United States;75.145.245.85;13;21;25;0;2426;-1;1;69
A3PN2086LSLDV9;2LW9F9SSSHX1LX1WQ4WHBF8MXLHUY9;2JMSMEZZ2MIK61M3600Y98TXP575MV;1352404924;;;United States;72.73.110.253;14;432;98;0;;0;1;0
ALEW8U625N446;2JJNDWIOV1S7C1GMRRL19YD21K1IXK;2JMSMEZZ2MIK61M3600Y98TXP575MV;1352404924;Windows;Firefox-14;Iceland;101.61.112.153;5;152;175;152;6167;-1;-1;39
A2WB6PTJR698VP;23EOFXRDS4ICLSBML8AFS11DVFNUX3;2JMSMEZZ2MIK61M3600Y98TXP575MV;1352404924;Windows;Chrome-23;Macedonia, The Former Yugoslav Republic of;95.86.9.112;5;488;400;488;5636;-1;-1;15
A2SYRFPPV9WDEG;20TSNQQ7Q670PF3TAYI18TQFUUFAUG;2JMSMEZZ2MIK61M3600Y98TXP575MV;1352404925;Windows;Firefox-19;United States;66.75.77.46;4;209;250;209;2509;-1;-1;27
A3NSQ31TWXF8Z6;2P5EY5COW0LGBDGHA26LI6VQNWP5W4;2JMSMEZZ2MIK61M3600Y98TXP575MV;1352404925;Windows;Firefox-16;India;180.215.178.226;1;99;120;99;14965;0;-1;9
A2B3YHRCG8QT00;2BG3W5XH0JPPCWFTWPGLYP78DIEKEN;2JMSMEZZ2MIK61M3600Y98TXP575MV;1352404925;Windows;Chrome-23;United States;98.111.132.148;6;305;0;305;3989;1;-1;0
A3PN2086LSLDV9;2LW9F9SSSHX1LX1WQ4WHBF8MXLHUY9;2JMSMEZZ2MIK61M3600Y98TXP575MV;1352404926;;;United States;72.73.110.253;15;114;456;0;;0;1;0
A2N2KQXUPLNDWI;25CCJ011K2743LMTO7X1EN49NU7AC5;2JMSMEZZ2MIK61M3600Y98TXP575MV;1352404926;Windows;Firefox-16;United States;24.173.74.242;4;211;2000;211;5199;-1;-1;0
AVEEXNWYXBSGM;259VKCJ011K2RIWG7VHWC18QX3N8AY;2JMSMEZZ2MIK61M3600Y98TXP575MV;1352404927;Windows;Firefox-16;United States;74.32.9.229;2;16;25;16;6173;0;-1;13
A2QLSHXNCHBRN4;2MGK2JE1M7PK4NY0UHFZGC07EWPPW9;2JMSMEZZ2MIK61M3600Y98TXP575MV;1352404928;Windows;Firefox-16;United States;24.60.89.121;7;249;201;249;2781;-1;-1;48
A85EHBX1CKMI2;2SY2NJQ2172ZTN3Q4MBLIVEENYVPX2;2JMSMEZZ2MIK61M3600Y98TXP575MV;1352404928;Mac;Firefox-16;United States;24.13.106.19;11;406;422;0;3242;-1;1;73
A3E63RE3CI5ZH5;2JM8P9Y38TWWHWG1S99M6JTD9KZIZH;2JMSMEZZ2MIK61M3600Y98TXP575MV;1352404929;Windows;Chrome-23;United States;75.145.245.85;14;20;20;0;2674;-1;1;79
A4CAM3DGFATWY;2DGH1XERSQV6Q5YYFTK3NVWDOHB08Z;2JMSMEZZ2MIK61M3600Y98TXP575MV;1352404929;Windows;Firefox-16;United States;75.94.22.70;2;67;135;67;5464;1;-1;11
A2CS8ESKDX6EBA;2PD42J1LY58BRGKVYT7FQHD4ZV85Q0;2JMSMEZZ2MIK61M3600Y98TXP575MV;1352404929;Windows;Chrome-21;India;202.153.41.133;1;13;15;13;8893;-1;-1;9
A2WB6PTJR698VP;23EOFXRDS4ICLSBML8AFS11DVFNUX3;2JMSMEZZ2MIK61M3600Y98TXP575MV;1352404929;Windows;Chrome-23;Macedonia, The Former Yugoslav Republic of;95.86.9.112;6;24;15;24;2435;-1;-1;19
A1QSV6T2K6P8NU;2CYDG67D1X3VKTX9AZB2PE1P0MCHAL;2JMSMEZZ2MIK61M3600Y98TXP575MV;1352404930;Windows;Chrome-23;United States;75.64.167.15;2;295;200;295;4804;1;-1;15
A2SYRFPPV9WDEG;20TSNQQ7Q670PF3TAYI18TQFUUFAUG;2JMSMEZZ2MIK61M3600Y98TXP575MV;1352404930;Windows;Firefox-19;United States;66.75.77.46;5;211;150;211;2809;-1;-1;33
A2B3YHRCG8QT00;2BG3W5XH0JPPCWFTWPGLYP78DIEKEN;2JMSMEZZ2MIK61M3600Y98TXP575MV;1352404930;Windows;Chrome-23;United States;98.111.132.148;7;456;60;456;2405;1;-1;0
A3PN2086LSLDV9;2LW9F9SSSHX1LX1WQ4WHBF8MXLHUY9;2JMSMEZZ2MIK61M3600Y98TXP575MV;1352404931;;;United States;72.73.110.253;16;101;34;0;;0;1;0
A3PN2086LSLDV9;2LW9F9SSSHX1LX1WQ4WHBF8MXLHUY9;2JMSMEZZ2MIK61M3600Y98TXP575MV;1352404933;;;United States;72.73.110.253;17;451;23;0;;0;1;0
ALEW8U625N446;2JJNDWIOV1S7C1GMRRL19YD21K1IXK;2JMSMEZZ2MIK61M3600Y98TXP575MV;1352404933;Windows;Firefox-14;Iceland;101.61.112.153;6;31;45;31;5563;-1;-1;44
A2QLSHXNCHBRN4;2MGK2JE1M7PK4NY0UHFZGC07EWPPW9;2JMSMEZZ2MIK61M3600Y98TXP575MV;1352404934;Windows;Firefox-16;United States;24.60.89.121;8;419;345;419;3277;-1;-1;56
A2B3YHRCG8QT00;2BG3W5XH0JPPCWFTWPGLYP78DIEKEN;2JMSMEZZ2MIK61M3600Y98TXP575MV;1352404934;Windows;Chrome-23;United States;98.111.132.148;8;76;25;76;1840;1;-1;0
A85EHBX1CKMI2;2SY2NJQ2172ZTN3Q4MBLIVEENYVPX2;2JMSMEZZ2MIK61M3600Y98TXP575MV;1352404934;Mac;Firefox-16;United States;24.13.106.19;12;465;543;0;3335;-1;1;82
A2B3YHRCG8QT00;2BG3W5XH0JPPCWFTWPGLYP78DIEKEN;2JMSMEZZ2MIK61M3600Y98TXP575MV;1352404934;Windows;Chrome-23;United States;98.111.132.148;8;76;25;76;1840;1;-1;0
A3E63RE3CI5ZH5;2JM8P9Y38TWWHWG1S99M6JTD9KZIZH;2JMSMEZZ2MIK61M3600Y98TXP575MV;1352404935;Windows;Chrome-23;United States;75.145.245.85;15;301;325;0;3285;-1;1;89
A3NSQ31TWXF8Z6;2P5EY5COW0LGBDGHA26LI6VQNWP5W4;2JMSMEZZ2MIK61M3600Y98TXP575MV;1352404935;Windows;Firefox-16;India;180.215.178.226;2;219;110;219;6841;0;-1;10
AVEEXNWYXBSGM;259VKCJ011K2RIWG7VHWC18QX3N8AY;2JMSMEZZ2MIK61M3600Y98TXP575MV;1352404935;Windows;Firefox-16;United States;74.32.9.229;3;311;205;311;5567;0;-1;18
A2J2517WAWGQBW;2REVHVKCJ0114GKDHI0KWW641KX868;2JMSMEZZ2MIK61M3600Y98TXP575MV;1352404935;;;United States;71.125.243.122;1;108;20;108;;-1;-1;0
A2SYRFPPV9WDEG;20TSNQQ7Q670PF3TAYI18TQFUUFAUG;2JMSMEZZ2MIK61M3600Y98TXP575MV;1352404935;Windows;Firefox-19;United States;66.75.77.46;6;434;400;434;2534;-1;-1;43
A4CAM3DGFATWY;2DGH1XERSQV6Q5YYFTK3NVWDOHB08Z;2JMSMEZZ2MIK61M3600Y98TXP575MV;1352404936;Windows;Firefox-16;United States;75.94.22.70;3;483;235;483;4275;1;-1;12
A2WB6PTJR698VP;23EOFXRDS4ICLSBML8AFS11DVFNUX3;2JMSMEZZ2MIK61M3600Y98TXP575MV;1352404936;Windows;Chrome-23;Macedonia, The Former Yugoslav Republic of;95.86.9.112;7;340;200;340;3293;-1;-1;22
A3PN2086LSLDV9;2LW9F9SSSHX1LX1WQ4WHBF8MXLHUY9;2JMSMEZZ2MIK61M3600Y98TXP575MV;1352404936;;;United States;72.73.110.253;18;96;98;0;;0;1;0
A2N2KQXUPLNDWI;25CCJ011K2743LMTO7X1EN49NU7AC5;2JMSMEZZ2MIK61M3600Y98TXP575MV;1352404937;Windows;Firefox-16;United States;24.173.74.242;5;63;150;63;9048;-1;-1;0
A1QSV6T2K6P8NU;2CYDG67D1X3VKTX9AZB2PE1P0MCHAL;2JMSMEZZ2MIK61M3600Y98TXP575MV;1352404938;Windows;Chrome-23;United States;75.64.167.15;3;237;200;237;5996;1;-1;24
A2B3YHRCG8QT00;2BG3W5XH0JPPCWFTWPGLYP78DIEKEN;2JMSMEZZ2MIK61M3600Y98TXP575MV;1352404939;Windows;Chrome-23;United States;98.111.132.148;9;308;60;308;2459;1;-1;0
A3E63RE3CI5ZH5;2JM8P9Y38TWWHWG1S99M6JTD9KZIZH;2JMSMEZZ2MIK61M3600Y98TXP575MV;1352404939;Windows;Chrome-23;United States;75.145.245.85;16;66;25;0;1952;-1;1;89
A85EHBX1CKMI2;2SY2NJQ2172ZTN3Q4MBLIVEENYVPX2;2JMSMEZZ2MIK61M3600Y98TXP575MV;1352404939;Mac;Firefox-16;United States;24.13.106.19;13;37;18;0;2693;-1;1;83
A2QLSHXNCHBRN4;2MGK2JE1M7PK4NY0UHFZGC07EWPPW9;2JMSMEZZ2MIK61M3600Y98TXP575MV;1352404940;Windows;Firefox-16;United States;24.60.89.121;9;371;456;371;3874;-1;-1;64
A2SYRFPPV9WDEG;20TSNQQ7Q670PF3TAYI18TQFUUFAUG;2JMSMEZZ2MIK61M3600Y98TXP575MV;1352404940;Windows;Firefox-19;United States;66.75.77.46;7;280;250;280;2081;-1;-1;52
ABOEYY9Y0PFRI;2JJJ85OZIZEH6ONYKZFQBEWSQIQAYE;2JMSMEZZ2MIK61M3600Y98TXP575MV;1352404942;Windows;Chrome-23;United States;75.64.25.219;1;334;125;334;4019;-1;-1;0
A4CAM3DGFATWY;2DGH1XERSQV6Q5YYFTK3NVWDOHB08Z;2JMSMEZZ2MIK61M3600Y98TXP575MV;1352404942;Windows;Firefox-16;United States;75.94.22.70;4;57;395;57;3919;1;-1;12
ALEW8U625N446;2JJNDWIOV1S7C1GMRRL19YD21K1IXK;2JMSMEZZ2MIK61M3600Y98TXP575MV;1352404942;Windows;Firefox-14;Iceland;101.61.112.153;7;43;39;43;5756;-1;-1;54
A3NSQ31TWXF8Z6;2P5EY5COW0LGBDGHA26LI6VQNWP5W4;2JMSMEZZ2MIK61M3600Y98TXP575MV;1352404943;Windows;Firefox-16;India;180.215.178.226;3;97;170;97;4815;0;-1;13
AVEEXNWYXBSGM;259VKCJ011K2RIWG7VHWC18QX3N8AY;2JMSMEZZ2MIK61M3600Y98TXP575MV;1352404943;Windows;Firefox-16;United States;74.32.9.229;4;82;61;82;4911;0;-1;25
A2B3YHRCG8QT00;2BG3W5XH0JPPCWFTWPGLYP78DIEKEN;2JMSMEZZ2MIK61M3600Y98TXP575MV;1352404943;Windows;Chrome-23;United States;98.111.132.148;10;397;50;397;1675;1;-1;0
A2WB6PTJR698VP;23EOFXRDS4ICLSBML8AFS11DVFNUX3;2JMSMEZZ2MIK61M3600Y98TXP575MV;1352404944;Windows;Chrome-23;Macedonia, The Former Yugoslav Republic of;95.86.9.112;8;125;200;125;4589;-1;-1;26
A2SYRFPPV9WDEG;20TSNQQ7Q670PF3TAYI18TQFUUFAUG;2JMSMEZZ2MIK61M3600Y98TXP575MV;1352404944;Windows;Firefox-19;United States;66.75.77.46;8;147;50;147;1693;-1;-1;52
A3E63RE3CI5ZH5;2JM8P9Y38TWWHWG1S99M6JTD9KZIZH;2JMSMEZZ2MIK61M3600Y98TXP575MV;1352404945;Windows;Chrome-23;United States;75.145.245.85;17;212;225;0;3077;-1;1;99
A2J2517WAWGQBW;2REVHVKCJ0114GKDHI0KWW641KX868;2JMSMEZZ2MIK61M3600Y98TXP575MV;1352404945;;;United States;71.125.243.122;2;404;30;404;;-1;-1;0
A85EHBX1CKMI2;2SY2NJQ2172ZTN3Q4MBLIVEENYVPX2;2JMSMEZZ2MIK61M3600Y98TXP575MV;1352404945;Mac;Firefox-16;United States;24.13.106.19;14;52;37;0;3416;-1;1;89
A2QLSHXNCHBRN4;2MGK2JE1M7PK4NY0UHFZGC07EWPPW9;2JMSMEZZ2MIK61M3600Y98TXP575MV;1352404945;Windows;Firefox-16;United States;24.60.89.121;10;101;108;101;3135;-1;-1;74
A2CS8ESKDX6EBA;2PD42J1LY58BRGKVYT7FQHD4ZV85Q0;2JMSMEZZ2MIK61M3600Y98TXP575MV;1352404946;Windows;Chrome-21;India;202.153.41.133;2;250;350;250;13939;-1;-1;15
ABOEYY9Y0PFRI;2JJJ85OZIZEH6ONYKZFQBEWSQIQAYE;2JMSMEZZ2MIK61M3600Y98TXP575MV;1352404946;Windows;Chrome-23;United States;75.64.25.219;2;253;275;253;1738;-1;-1;10
A1SJS13KVJV1V;26UDIPDOBDDPS3W5I54DEXMEWNW0BY;2JMSMEZZ2MIK61M3600Y98TXP575MV;1352404946;Windows;Chrome-22;United States;108.85.210.104;1;273;125;273;4992;1;-1;1
A2B3YHRCG8QT00;2BG3W5XH0JPPCWFTWPGLYP78DIEKEN;2JMSMEZZ2MIK61M3600Y98TXP575MV;1352404947;Windows;Chrome-23;United States;98.111.132.148;11;105;25;0;1705;1;1;0
A2N2KQXUPLNDWI;25CCJ011K2743LMTO7X1EN49NU7AC5;2JMSMEZZ2MIK61M3600Y98TXP575MV;1352404948;Windows;Firefox-16;United States;24.173.74.242;6;145;100;145;7988;-1;-1;5
A1QSV6T2K6P8NU;2CYDG67D1X3VKTX9AZB2PE1P0MCHAL;2JMSMEZZ2MIK61M3600Y98TXP575MV;1352404949;Windows;Chrome-23;United States;75.64.167.15;4;353;330;353;9144;1;-1;34
A2SYRFPPV9WDEG;20TSNQQ7Q670PF3TAYI18TQFUUFAUG;2JMSMEZZ2MIK61M3600Y98TXP575MV;1352404949;Windows;Firefox-19;United States;66.75.77.46;9;264;250;264;3070;-1;-1;62
AVEEXNWYXBSGM;259VKCJ011K2RIWG7VHWC18QX3N8AY;2JMSMEZZ2MIK61M3600Y98TXP575MV;1352404950;Windows;Firefox-16;United States;74.32.9.229;5;431;578;431;4697;0;-1;32
A3E63RE3CI5ZH5;2JM8P9Y38TWWHWG1S99M6JTD9KZIZH;2JMSMEZZ2MIK61M3600Y98TXP575MV;1352404950;Windows;Chrome-23;United States;75.145.245.85;18;223;325;0;2727;-1;1;104
A4CAM3DGFATWY;2DGH1XERSQV6Q5YYFTK3NVWDOHB08Z;2JMSMEZZ2MIK61M3600Y98TXP575MV;1352404950;Windows;Firefox-16;United States;75.94.22.70;5;106;155;106;5953;1;-1;17
A2QLSHXNCHBRN4;2MGK2JE1M7PK4NY0UHFZGC07EWPPW9;2JMSMEZZ2MIK61M3600Y98TXP575MV;1352404950;Windows;Firefox-16;United States;24.60.89.121;11;427;305;0;2745;-1;1;80
A357FWP7KGPP8;2I6BDPGFL6VC9ACIPY4WOOV4L4LJ4I;2JMSMEZZ2MIK61M3600Y98TXP575MV;1352404950;Windows;Chrome-22;United States;24.231.202.163;1;55;68;55;5331;1;-1;8
A85EHBX1CKMI2;2SY2NJQ2172ZTN3Q4MBLIVEENYVPX2;2JMSMEZZ2MIK61M3600Y98TXP575MV;1352404950;Mac;Firefox-16;United States;24.13.106.19;15;474;532;0;3218;-1;1;98
A2WB6PTJR698VP;23EOFXRDS4ICLSBML8AFS11DVFNUX3;2JMSMEZZ2MIK61M3600Y98TXP575MV;1352404951;Windows;Chrome-23;Macedonia, The Former Yugoslav Republic of;95.86.9.112;9;79;75;79;4621;-1;-1;36
A1SJS13KVJV1V;26UDIPDOBDDPS3W5I54DEXMEWNW0BY;2JMSMEZZ2MIK61M3600Y98TXP575MV;1352404952;Windows;Chrome-22;United States;108.85.210.104;2;81;59;81;4213;1;-1;7
A2B3YHRCG8QT00;2BG3W5XH0JPPCWFTWPGLYP78DIEKEN;2JMSMEZZ2MIK61M3600Y98TXP575MV;1352404954;Windows;Chrome-23;United States;98.111.132.148;12;299;25;0;4146;1;1;0
A2CS8ESKDX6EBA;2PD42J1LY58BRGKVYT7FQHD4ZV85Q0;2JMSMEZZ2MIK61M3600Y98TXP575MV;1352404954;Windows;Chrome-21;India;202.153.41.133;3;344;500;344;5410;-1;-1;20
A2J2517WAWGQBW;2REVHVKCJ0114GKDHI0KWW641KX868;2JMSMEZZ2MIK61M3600Y98TXP575MV;1352404954;;;United States;71.125.243.122;3;146;22;146;;-1;-1;0
A2SYRFPPV9WDEG;20TSNQQ7Q670PF3TAYI18TQFUUFAUG;2JMSMEZZ2MIK61M3600Y98TXP575MV;1352404954;Windows;Firefox-19;United States;66.75.77.46;10;145;100;145;2410;-1;-1;67
A85EHBX1CKMI2;2SY2NJQ2172ZTN3Q4MBLIVEENYVPX2;2JMSMEZZ2MIK61M3600Y98TXP575MV;1352404955;Mac;Firefox-16;United States;24.13.106.19;16;36;31;0;2104;-1;1;107
A3E63RE3CI5ZH5;2JM8P9Y38TWWHWG1S99M6JTD9KZIZH;2JMSMEZZ2MIK61M3600Y98TXP575MV;1352404955;Windows;Chrome-23;United States;75.145.245.85;19;254;145;0;2036;-1;1;107
ABOEYY9Y0PFRI;2JJJ85OZIZEH6ONYKZFQBEWSQIQAYE;2JMSMEZZ2MIK61M3600Y98TXP575MV;1352404955;Windows;Chrome-23;United States;75.64.25.219;3;70;265;70;7316;-1;-1;10
A3NSQ31TWXF8Z6;2P5EY5COW0LGBDGHA26LI6VQNWP5W4;2JMSMEZZ2MIK61M3600Y98TXP575MV;1352404956;Windows;Firefox-16;India;180.215.178.226;4;324;213;324;9928;0;-1;18
A2WB6PTJR698VP;23EOFXRDS4ICLSBML8AFS11DVFNUX3;2JMSMEZZ2MIK61M3600Y98TXP575MV;1352404956;Windows;Chrome-23;Macedonia, The Former Yugoslav Republic of;95.86.9.112;10;114;75;114;2875;-1;-1;41
ALEW8U625N446;2JJNDWIOV1S7C1GMRRL19YD21K1IXK;2JMSMEZZ2MIK61M3600Y98TXP575MV;1352404956;Windows;Firefox-14;Iceland;101.61.112.153;8;109;145;109;8326;-1;-1;61
A2QLSHXNCHBRN4;2MGK2JE1M7PK4NY0UHFZGC07EWPPW9;2JMSMEZZ2MIK61M3600Y98TXP575MV;1352404956;Windows;Firefox-16;United States;24.60.89.121;12;176;159;0;3945;-1;1;90
A2N2KQXUPLNDWI;25CCJ011K2743LMTO7X1EN49NU7AC5;2JMSMEZZ2MIK61M3600Y98TXP575MV;1352404957;Windows;Firefox-16;United States;24.173.74.242;7;112;175;112;6671;-1;-1;9
AVEEXNWYXBSGM;259VKCJ011K2RIWG7VHWC18QX3N8AY;2JMSMEZZ2MIK61M3600Y98TXP575MV;1352404957;Windows;Firefox-16;United States;74.32.9.229;6;336;789;336;4900;0;-1;32
A357FWP7KGPP8;2I6BDPGFL6VC9ACIPY4WOOV4L4LJ4I;2JMSMEZZ2MIK61M3600Y98TXP575MV;1352404958;Windows;Chrome-22;United States;24.231.202.163;2;122;103;122;5058;1;-1;17
A4CAM3DGFATWY;2DGH1XERSQV6Q5YYFTK3NVWDOHB08Z;2JMSMEZZ2MIK61M3600Y98TXP575MV;1352404958;Windows;Firefox-16;United States;75.94.22.70;6;363;245;363;5405;1;-1;22
A2B3YHRCG8QT00;2BG3W5XH0JPPCWFTWPGLYP78DIEKEN;2JMSMEZZ2MIK61M3600Y98TXP575MV;1352404959;Windows;Chrome-23;United States;98.111.132.148;13;19;10;0;2994;1;1;2
A85EHBX1CKMI2;2SY2NJQ2172ZTN3Q4MBLIVEENYVPX2;2JMSMEZZ2MIK61M3600Y98TXP575MV;1352404959;Mac;Firefox-16;United States;24.13.106.19;17;88;43;0;2266;-1;1;108
A2SYRFPPV9WDEG;20TSNQQ7Q670PF3TAYI18TQFUUFAUG;2JMSMEZZ2MIK61M3600Y98TXP575MV;1352404959;Windows;Firefox-19;United States;66.75.77.46;11;32;30;0;2502;-1;1;77
A3E63RE3CI5ZH5;2JM8P9Y38TWWHWG1S99M6JTD9KZIZH;2JMSMEZZ2MIK61M3600Y98TXP575MV;1352404960;Windows;Chrome-23;United States;75.145.245.85;20;125;120;0;2425;-1;1;117
A1SJS13KVJV1V;26UDIPDOBDDPS3W5I54DEXMEWNW0BY;2JMSMEZZ2MIK61M3600Y98TXP575MV;1352404960;Windows;Chrome-22;United States;108.85.210.104;3;462;345;462;5424;1;-1;14
A2QLSHXNCHBRN4;2MGK2JE1M7PK4NY0UHFZGC07EWPPW9;2JMSMEZZ2MIK61M3600Y98TXP575MV;1352404960;Windows;Firefox-16;United States;24.60.89.121;13;325;200;0;1991;-1;1;94
ABOEYY9Y0PFRI;2JJJ85OZIZEH6ONYKZFQBEWSQIQAYE;2JMSMEZZ2MIK61M3600Y98TXP575MV;1352404961;Windows;Chrome-23;United States;75.64.25.219;4;21;20;21;2916;-1;-1;20
A2CS8ESKDX6EBA;2PD42J1LY58BRGKVYT7FQHD4ZV85Q0;2JMSMEZZ2MIK61M3600Y98TXP575MV;1352404962;Windows;Chrome-21;India;202.153.41.133;4;415;400;415;4889;-1;-1;30
A2J2517WAWGQBW;2REVHVKCJ0114GKDHI0KWW641KX868;2JMSMEZZ2MIK61M3600Y98TXP575MV;1352404963;;;United States;71.125.243.122;4;11;18;11;;-1;-1;0
A357FWP7KGPP8;2I6BDPGFL6VC9ACIPY4WOOV4L4LJ4I;2JMSMEZZ2MIK61M3600Y98TXP575MV;1352404963;Windows;Chrome-22;United States;24.231.202.163;3;494;500;494;3199;1;-1;27
A2B3YHRCG8QT00;2BG3W5XH0JPPCWFTWPGLYP78DIEKEN;2JMSMEZZ2MIK61M3600Y98TXP575MV;1352404964;Windows;Chrome-23;United States;98.111.132.148;14;36;10;0;2549;1;1;2
A2SYRFPPV9WDEG;20TSNQQ7Q670PF3TAYI18TQFUUFAUG;2JMSMEZZ2MIK61M3600Y98TXP575MV;1352404964;Windows;Firefox-19;United States;66.75.77.46;12;142;150;0;2132;-1;1;87
A2N2KQXUPLNDWI;25CCJ011K2743LMTO7X1EN49NU7AC5;2JMSMEZZ2MIK61M3600Y98TXP575MV;1352404964;Windows;Firefox-16;United States;24.173.74.242;8;288;250;288;4399;-1;-1;18
A1QSV6T2K6P8NU;2CYDG67D1X3VKTX9AZB2PE1P0MCHAL;2JMSMEZZ2MIK61M3600Y98TXP575MV;1352404964;Windows;Chrome-23;United States;75.64.167.15;5;115;30;115;12684;1;-1;34
A4CAM3DGFATWY;2DGH1XERSQV6Q5YYFTK3NVWDOHB08Z;2JMSMEZZ2MIK61M3600Y98TXP575MV;1352404964;Windows;Firefox-16;United States;75.94.22.70;7;46;250;46;4200;1;-1;22
ALEW8U625N446;2JJNDWIOV1S7C1GMRRL19YD21K1IXK;2JMSMEZZ2MIK61M3600Y98TXP575MV;1352404964;Windows;Firefox-14;Iceland;101.61.112.153;9;210;150;210;5621;-1;-1;67
A3NSQ31TWXF8Z6;2P5EY5COW0LGBDGHA26LI6VQNWP5W4;2JMSMEZZ2MIK61M3600Y98TXP575MV;1352404964;Windows;Firefox-16;India;180.215.178.226;5;307;440;307;5333;0;-1;24
A3E63RE3CI5ZH5;2JM8P9Y38TWWHWG1S99M6JTD9KZIZH;2JMSMEZZ2MIK61M3600Y98TXP575MV;1352404965;Windows;Chrome-23;United States;75.145.245.85;21;452;450;0;2986;-1;1;127
A85EHBX1CKMI2;2SY2NJQ2172ZTN3Q4MBLIVEENYVPX2;2JMSMEZZ2MIK61M3600Y98TXP575MV;1352404965;Mac;Firefox-16;United States;24.13.106.19;18;217;109;0;3697;-1;1;109
AVEEXNWYXBSGM;259VKCJ011K2RIWG7VHWC18QX3N8AY;2JMSMEZZ2MIK61M3600Y98TXP575MV;1352404965;Windows;Firefox-16;United States;74.32.9.229;7;382;800;382;4967;0;-1;33
A2QLSHXNCHBRN4;2MGK2JE1M7PK4NY0UHFZGC07EWPPW9;2JMSMEZZ2MIK61M3600Y98TXP575MV;1352404966;Windows;Firefox-16;United States;24.60.89.121;14;153;158;0;3004;-1;1;104
A1SJS13KVJV1V;26UDIPDOBDDPS3W5I54DEXMEWNW0BY;2JMSMEZZ2MIK61M3600Y98TXP575MV;1352404967;Windows;Chrome-22;United States;108.85.210.104;4;403;375;403;4802;1;-1;24
ABOEYY9Y0PFRI;2JJJ85OZIZEH6ONYKZFQBEWSQIQAYE;2JMSMEZZ2MIK61M3600Y98TXP575MV;1352404968;Windows;Chrome-23;United States;75.64.25.219;5;316;250;316;4210;-1;-1;28
A2B3YHRCG8QT00;2BG3W5XH0JPPCWFTWPGLYP78DIEKEN;2JMSMEZZ2MIK61M3600Y98TXP575MV;1352404968;Windows;Chrome-23;United States;98.111.132.148;15;268;30;0;2200;1;1;2
A2SYRFPPV9WDEG;20TSNQQ7Q670PF3TAYI18TQFUUFAUG;2JMSMEZZ2MIK61M3600Y98TXP575MV;1352404969;Windows;Firefox-19;United States;66.75.77.46;13;292;400;0;2260;-1;1;93
A2J2517WAWGQBW;2REVHVKCJ0114GKDHI0KWW641KX868;2JMSMEZZ2MIK61M3600Y98TXP575MV;1352404969;;;United States;71.125.243.122;5;57;12;57;;-1;-1;0
A3E63RE3CI5ZH5;2JM8P9Y38TWWHWG1S99M6JTD9KZIZH;2JMSMEZZ2MIK61M3600Y98TXP575MV;1352404969;Windows;Chrome-23;United States;75.145.245.85;22;26;20;0;1707;-1;1;134
A85EHBX1CKMI2;2SY2NJQ2172ZTN3Q4MBLIVEENYVPX2;2JMSMEZZ2MIK61M3600Y98TXP575MV;1352404970;Mac;Firefox-16;United States;24.13.106.19;19;134;121;0;2847;-1;1;119
A3NSQ31TWXF8Z6;2P5EY5COW0LGBDGHA26LI6VQNWP5W4;2JMSMEZZ2MIK61M3600Y98TXP575MV;1352404971;Windows;Firefox-16;India;180.215.178.226;6;125;200;125;3698;0;-1;28
A2QLSHXNCHBRN4;2MGK2JE1M7PK4NY0UHFZGC07EWPPW9;2JMSMEZZ2MIK61M3600Y98TXP575MV;1352404971;Windows;Firefox-16;United States;24.60.89.121;15;279;259;0;2556;-1;1;114
A1QSV6T2K6P8NU;2CYDG67D1X3VKTX9AZB2PE1P0MCHAL;2JMSMEZZ2MIK61M3600Y98TXP575MV;1352404971;Windows;Chrome-23;United States;75.64.167.15;6;15;15;15;4951;1;-1;44
AVEEXNWYXBSGM;259VKCJ011K2RIWG7VHWC18QX3N8AY;2JMSMEZZ2MIK61M3600Y98TXP575MV;1352404971;Windows;Firefox-16;United States;74.32.9.229;8;15;15;15;4062;0;-1;43
A33RPCZ6KOF549;20QN5F3Q0JG5DCZWA7PBA9FCLPLGCO;2JMSMEZZ2MIK61M3600Y98TXP575MV;1352404973;Windows;Chrome-23;United States;71.193.173.170;1;22;16;22;3736;0;-1;6
A4CAM3DGFATWY;2DGH1XERSQV6Q5YYFTK3NVWDOHB08Z;2JMSMEZZ2MIK61M3600Y98TXP575MV;1352404973;Windows;Firefox-16;United States;75.94.22.70;8;433;230;433;5560;1;-1;24
A1SJS13KVJV1V;26UDIPDOBDDPS3W5I54DEXMEWNW0BY;2JMSMEZZ2MIK61M3600Y98TXP575MV;1352404973;Windows;Chrome-22;United States;108.85.210.104;5;13;12;13;3405;1;-1;34
A2B3YHRCG8QT00;2BG3W5XH0JPPCWFTWPGLYP78DIEKEN;2JMSMEZZ2MIK61M3600Y98TXP575MV;1352404973;Windows;Chrome-23;United States;98.111.132.148;16;168;25;0;1685;1;1;2
ABOEYY9Y0PFRI;2JJJ85OZIZEH6ONYKZFQBEWSQIQAYE;2JMSMEZZ2MIK61M3600Y98TXP575MV;1352404973;Windows;Chrome-23;United States;75.64.25.219;6;39;38;39;3349;-1;-1;38
ALEW8U625N446;2JJNDWIOV1S7C1GMRRL19YD21K1IXK;2JMSMEZZ2MIK61M3600Y98TXP575MV;1352404973;Windows;Firefox-14;Iceland;101.61.112.153;10;230;187;230;5984;-1;-1;75
A2SYRFPPV9WDEG;20TSNQQ7Q670PF3TAYI18TQFUUFAUG;2JMSMEZZ2MIK61M3600Y98TXP575MV;1352404974;Windows;Firefox-19;United States;66.75.77.46;14;232;250;0;1850;-1;1;103
A2WB6PTJR698VP;23EOFXRDS4ICLSBML8AFS11DVFNUX3;2JMSMEZZ2MIK61M3600Y98TXP575MV;1352404974;Windows;Chrome-23;Macedonia, The Former Yugoslav Republic of;95.86.9.112;11;83;80;0;15518;-1;1;51
A2N2KQXUPLNDWI;25CCJ011K2743LMTO7X1EN49NU7AC5;2JMSMEZZ2MIK61M3600Y98TXP575MV;1352404974;Windows;Firefox-16;United States;24.173.74.242;9;29;55;29;7399;-1;-1;20
A3E63RE3CI5ZH5;2JM8P9Y38TWWHWG1S99M6JTD9KZIZH;2JMSMEZZ2MIK61M3600Y98TXP575MV;1352404974;Windows;Chrome-23;United States;75.145.245.85;23;167;100;0;2022;-1;1;137
A2J2517WAWGQBW;2REVHVKCJ0114GKDHI0KWW641KX868;2JMSMEZZ2MIK61M3600Y98TXP575MV;1352404975;;;United States;71.125.243.122;6;114;23;114;;-1;-1;0
A85EHBX1CKMI2;2SY2NJQ2172ZTN3Q4MBLIVEENYVPX2;2JMSMEZZ2MIK61M3600Y98TXP575MV;1352404976;Mac;Firefox-16;United States;24.13.106.19;20;63;64;0;3570;-1;1;129
A2B3YHRCG8QT00;2BG3W5XH0JPPCWFTWPGLYP78DIEKEN;2JMSMEZZ2MIK61M3600Y98TXP575MV;1352404977;Windows;Chrome-23;United States;98.111.132.148;17;86;20;0;1760;1;1;2
A2CS8ESKDX6EBA;2PD42J1LY58BRGKVYT7FQHD4ZV85Q0;2JMSMEZZ2MIK61M3600Y98TXP575MV;1352404977;Windows;Chrome-21;India;202.153.41.133;5;96;100;96;13319;-1;-1;40
AVEEXNWYXBSGM;259VKCJ011K2RIWG7VHWC18QX3N8AY;2JMSMEZZ2MIK61M3600Y98TXP575MV;1352404978;Windows;Firefox-16;United States;74.32.9.229;9;496;560;496;4273;0;-1;52
ABOEYY9Y0PFRI;2JJJ85OZIZEH6ONYKZFQBEWSQIQAYE;2JMSMEZZ2MIK61M3600Y98TXP575MV;1352404978;Windows;Chrome-23;United States;75.64.25.219;7;302;325;302;2828;-1;-1;48
A3E63RE3CI5ZH5;2JM8P9Y38TWWHWG1S99M6JTD9KZIZH;2JMSMEZZ2MIK61M3600Y98TXP575MV;1352404978;Windows;Chrome-23;United States;75.145.245.85;24;240;200;0;1638;-1;1;146
A3NSQ31TWXF8Z6;2P5EY5COW0LGBDGHA26LI6VQNWP5W4;2JMSMEZZ2MIK61M3600Y98TXP575MV;1352404978;Windows;Firefox-16;India;180.215.178.226;7;102;89;102;4443;0;-1;37
A33RPCZ6KOF549;20QN5F3Q0JG5DCZWA7PBA9FCLPLGCO;2JMSMEZZ2MIK61M3600Y98TXP575MV;1352404978;Windows;Chrome-23;United States;71.193.173.170;2;335;350;335;3601;0;-1;16
A2QLSHXNCHBRN4;2MGK2JE1M7PK4NY0UHFZGC07EWPPW9;2JMSMEZZ2MIK61M3600Y98TXP575MV;1352404978;Windows;Firefox-16;United States;24.60.89.121;16;58;79;0;5172;-1;1;121
A2SYRFPPV9WDEG;20TSNQQ7Q670PF3TAYI18TQFUUFAUG;2JMSMEZZ2MIK61M3600Y98TXP575MV;1352404978;Windows;Firefox-19;United States;66.75.77.46;15;263;300;0;2021;-1;1;112
A1SJS13KVJV1V;26UDIPDOBDDPS3W5I54DEXMEWNW0BY;2JMSMEZZ2MIK61M3600Y98TXP575MV;1352404979;Windows;Chrome-22;United States;108.85.210.104;6;82;86;82;4034;1;-1;44
ALEW8U625N446;2JJNDWIOV1S7C1GMRRL19YD21K1IXK;2JMSMEZZ2MIK61M3600Y98TXP575MV;1352404979;Windows;Firefox-14;Iceland;101.61.112.153;11;32;32;0;3370;-1;1;85
A2J2517WAWGQBW;2REVHVKCJ0114GKDHI0KWW641KX868;2JMSMEZZ2MIK61M3600Y98TXP575MV;1352404979;;;United States;71.125.243.122;7;369;54;369;;-1;-1;0
A1QSV6T2K6P8NU;2CYDG67D1X3VKTX9AZB2PE1P0MCHAL;2JMSMEZZ2MIK61M3600Y98TXP575MV;1352404979;Windows;Chrome-23;United States;75.64.167.15;7;479;350;479;6096;1;-1;51
A4CAM3DGFATWY;2DGH1XERSQV6Q5YYFTK3NVWDOHB08Z;2JMSMEZZ2MIK61M3600Y98TXP575MV;1352404980;Windows;Firefox-16;United States;75.94.22.70;9;143;375;143;5247;1;-1;24
A2B3YHRCG8QT00;2BG3W5XH0JPPCWFTWPGLYP78DIEKEN;2JMSMEZZ2MIK61M3600Y98TXP575MV;1352404981;Windows;Chrome-23;United States;98.111.132.148;18;347;50;0;1749;1;1;2
A2WB6PTJR698VP;23EOFXRDS4ICLSBML8AFS11DVFNUX3;2JMSMEZZ2MIK61M3600Y98TXP575MV;1352404981;Windows;Chrome-23;Macedonia, The Former Yugoslav Republic of;95.86.9.112;12;50;35;0;4946;-1;1;57
A4ZUF1F9DPHVQ;2YRFYQS1CSTM8TA0B3VII1E16KQOLZ;2JMSMEZZ2MIK61M3600Y98TXP575MV;1352404981;Linux;Firefox-10;United States;130.49.222.83;1;190;115;190;12099;1;-1;3
A2N2KQXUPLNDWI;25CCJ011K2743LMTO7X1EN49NU7AC5;2JMSMEZZ2MIK61M3600Y98TXP575MV;1352404981;Windows;Firefox-16;United States;24.173.74.242;10;187;130;187;5262;-1;-1;26
A357FWP7KGPP8;2I6BDPGFL6VC9ACIPY4WOOV4L4LJ4I;2JMSMEZZ2MIK61M3600Y98TXP575MV;1352404982;Windows;Chrome-22;United States;24.231.202.163;4;180;150;180;16155;1;-1;36
A85EHBX1CKMI2;2SY2NJQ2172ZTN3Q4MBLIVEENYVPX2;2JMSMEZZ2MIK61M3600Y98TXP575MV;1352404982;Mac;Firefox-16;United States;24.13.106.19;21;456;433;0;3902;-1;1;139
A3E63RE3CI5ZH5;2JM8P9Y38TWWHWG1S99M6JTD9KZIZH;2JMSMEZZ2MIK61M3600Y98TXP575MV;1352404982;Windows;Chrome-23;United States;75.145.245.85;25;21;20;0;1354;-1;1;156
A2J2517WAWGQBW;2REVHVKCJ0114GKDHI0KWW641KX868;2JMSMEZZ2MIK61M3600Y98TXP575MV;1352404983;;;United States;71.125.243.122;8;120;54;120;;-1;-1;0
A2SYRFPPV9WDEG;20TSNQQ7Q670PF3TAYI18TQFUUFAUG;2JMSMEZZ2MIK61M3600Y98TXP575MV;1352404983;Windows;Firefox-19;United States;66.75.77.46;16;10;10;0;2074;-1;1;122
A33RPCZ6KOF549;20QN5F3Q0JG5DCZWA7PBA9FCLPLGCO;2JMSMEZZ2MIK61M3600Y98TXP575MV;1352404983;Windows;Chrome-23;United States;71.193.173.170;3;167;185;167;2768;0;-1;26
ABOEYY9Y0PFRI;2JJJ85OZIZEH6ONYKZFQBEWSQIQAYE;2JMSMEZZ2MIK61M3600Y98TXP575MV;1352404983;Windows;Chrome-23;United States;75.64.25.219;8;453;400;453;3173;-1;-1;57
AVEEXNWYXBSGM;259VKCJ011K2RIWG7VHWC18QX3N8AY;2JMSMEZZ2MIK61M3600Y98TXP575MV;1352404984;Windows;Firefox-16;United States;74.32.9.229;10;27;35;27;3448;0;-1;59
A2QLSHXNCHBRN4;2MGK2JE1M7PK4NY0UHFZGC07EWPPW9;2JMSMEZZ2MIK61M3600Y98TXP575MV;1352404984;Windows;Firefox-16;United States;24.60.89.121;17;175;210;0;3159;-1;1;130
A2M0X98KWWCAA;22KZVXX2Q45UEY3XWREI21NV1L8Q8M;2JMSMEZZ2MIK61M3600Y98TXP575MV;1352404984;Windows;Chrome-22;United States;69.88.216.102;1;130;60;130;10171;-1;-1;1
A2B3YHRCG8QT00;2BG3W5XH0JPPCWFTWPGLYP78DIEKEN;2JMSMEZZ2MIK61M3600Y98TXP575MV;1352404985;Windows;Chrome-23;United States;98.111.132.148;19;15;6;0;2089;1;1;2
A2CS8ESKDX6EBA;2PD42J1LY58BRGKVYT7FQHD4ZV85Q0;2JMSMEZZ2MIK61M3600Y98TXP575MV;1352404985;Windows;Chrome-21;India;202.153.41.133;6;386;450;386;4897;-1;-1;49
A1SJS13KVJV1V;26UDIPDOBDDPS3W5I54DEXMEWNW0BY;2JMSMEZZ2MIK61M3600Y98TXP575MV;1352404985;Windows;Chrome-22;United States;108.85.210.104;7;26;22;26;3953;1;-1;53
A3NSQ31TWXF8Z6;2P5EY5COW0LGBDGHA26LI6VQNWP5W4;2JMSMEZZ2MIK61M3600Y98TXP575MV;1352404986;Windows;Firefox-16;India;180.215.178.226;8;367;200;367;4866;0;-1;39
A3E63RE3CI5ZH5;2JM8P9Y38TWWHWG1S99M6JTD9KZIZH;2JMSMEZZ2MIK61M3600Y98TXP575MV;1352404986;Windows;Chrome-23;United States;75.145.245.85;26;161;100;0;1714;-1;1;160
A85EHBX1CKMI2;2SY2NJQ2172ZTN3Q4MBLIVEENYVPX2;2JMSMEZZ2MIK61M3600Y98TXP575MV;1352404986;Mac;Firefox-16;United States;24.13.106.19;22;73;88;0;2313;-1;1;148
A1QSV6T2K6P8NU;2CYDG67D1X3VKTX9AZB2PE1P0MCHAL;2JMSMEZZ2MIK61M3600Y98TXP575MV;1352404987;Windows;Chrome-23;United States;75.64.167.15;8;84;90;84;5160;1;-1;61
A2WB6PTJR698VP;23EOFXRDS4ICLSBML8AFS11DVFNUX3;2JMSMEZZ2MIK61M3600Y98TXP575MV;1352404987;Windows;Chrome-23;Macedonia, The Former Yugoslav Republic of;95.86.9.112;13;331;170;0;3676;-1;1;58
A4CAM3DGFATWY;2DGH1XERSQV6Q5YYFTK3NVWDOHB08Z;2JMSMEZZ2MIK61M3600Y98TXP575MV;1352404988;Windows;Firefox-16;United States;75.94.22.70;10;229;345;229;5099;1;-1;29
A2J2517WAWGQBW;2REVHVKCJ0114GKDHI0KWW641KX868;2JMSMEZZ2MIK61M3600Y98TXP575MV;1352404988;;;United States;71.125.243.122;9;26;70;26;;-1;-1;0
A33RPCZ6KOF549;20QN5F3Q0JG5DCZWA7PBA9FCLPLGCO;2JMSMEZZ2MIK61M3600Y98TXP575MV;1352404988;Windows;Chrome-23;United States;71.193.173.170;4;54;46;54;2633;0;-1;35
A2SYRFPPV9WDEG;20TSNQQ7Q670PF3TAYI18TQFUUFAUG;2JMSMEZZ2MIK61M3600Y98TXP575MV;1352404989;Windows;Firefox-19;United States;66.75.77.46;17;149;130;0;3517;-1;1;131
A2QLSHXNCHBRN4;2MGK2JE1M7PK4NY0UHFZGC07EWPPW9;2JMSMEZZ2MIK61M3600Y98TXP575MV;1352404989;Windows;Firefox-16;United States;24.60.89.121;18;401;405;0;2635;-1;1;140
A2N2KQXUPLNDWI;25CCJ011K2743LMTO7X1EN49NU7AC5;2JMSMEZZ2MIK61M3600Y98TXP575MV;1352404989;Windows;Firefox-16;United States;24.173.74.242;11;123;130;0;5173;-1;1;36
A357FWP7KGPP8;2I6BDPGFL6VC9ACIPY4WOOV4L4LJ4I;2JMSMEZZ2MIK61M3600Y98TXP575MV;1352404989;Windows;Chrome-22;United States;24.231.202.163;5;100;80;100;4907;1;-1;44
A2B3YHRCG8QT00;2BG3W5XH0JPPCWFTWPGLYP78DIEKEN;2JMSMEZZ2MIK61M3600Y98TXP575MV;1352404989;Windows;Chrome-23;United States;98.111.132.148;20;384;50;0;2333;1;1;2
ABOEYY9Y0PFRI;2JJJ85OZIZEH6ONYKZFQBEWSQIQAYE;2JMSMEZZ2MIK61M3600Y98TXP575MV;1352404989;Windows;Chrome-23;United States;75.64.25.219;9;300;385;300;3855;-1;-1;65
ALEW8U625N446;2JJNDWIOV1S7C1GMRRL19YD21K1IXK;2JMSMEZZ2MIK61M3600Y98TXP575MV;1352404990;Windows;Firefox-14;Iceland;101.61.112.153;12;139;200;0;7190;-1;1;91
A3E63RE3CI5ZH5;2JM8P9Y38TWWHWG1S99M6JTD9KZIZH;2JMSMEZZ2MIK61M3600Y98TXP575MV;1352404991;Windows;Chrome-23;United States;75.145.245.85;27;495;450;0;2359;-1;1;170
A85EHBX1CKMI2;2SY2NJQ2172ZTN3Q4MBLIVEENYVPX2;2JMSMEZZ2MIK61M3600Y98TXP575MV;1352404991;Mac;Firefox-16;United States;24.13.106.19;23;265;212;0;2743;-1;1;156
AVEEXNWYXBSGM;259VKCJ011K2RIWG7VHWC18QX3N8AY;2JMSMEZZ2MIK61M3600Y98TXP575MV;1352404991;Windows;Firefox-16;United States;74.32.9.229;11;186;120;0;4607;0;1;63
A2M0X98KWWCAA;22KZVXX2Q45UEY3XWREI21NV1L8Q8M;2JMSMEZZ2MIK61M3600Y98TXP575MV;1352404991;Windows;Chrome-22;United States;69.88.216.102;2;25;30;25;4773;-1;-1;10
A2WB6PTJR698VP;23EOFXRDS4ICLSBML8AFS11DVFNUX3;2JMSMEZZ2MIK61M3600Y98TXP575MV;1352404992;Windows;Chrome-23;Macedonia, The Former Yugoslav Republic of;95.86.9.112;14;285;200;0;2361;-1;1;64
A1SJS13KVJV1V;26UDIPDOBDDPS3W5I54DEXMEWNW0BY;2JMSMEZZ2MIK61M3600Y98TXP575MV;1352404992;Windows;Chrome-22;United States;108.85.210.104;8;235;225;235;4238;1;-1;63
A33RPCZ6KOF549;20QN5F3Q0JG5DCZWA7PBA9FCLPLGCO;2JMSMEZZ2MIK61M3600Y98TXP575MV;1352404992;Windows;Chrome-23;United States;71.193.173.170;5;19;16;19;2229;0;-1;44
A4CAM3DGFATWY;2DGH1XERSQV6Q5YYFTK3NVWDOHB08Z;2JMSMEZZ2MIK61M3600Y98TXP575MV;1352404993;Windows;Firefox-16;United States;75.94.22.70;11;94;175;0;2564;1;1;31
A2J2517WAWGQBW;2REVHVKCJ0114GKDHI0KWW641KX868;2JMSMEZZ2MIK61M3600Y98TXP575MV;1352404993;;;United States;71.125.243.122;10;71;56;71;;-1;-1;0
A3NSQ31TWXF8Z6;2P5EY5COW0LGBDGHA26LI6VQNWP5W4;2JMSMEZZ2MIK61M3600Y98TXP575MV;1352404993;Windows;Firefox-16;India;180.215.178.226;9;319;480;319;4361;0;-1;44
A2B3YHRCG8QT00;2BG3W5XH0JPPCWFTWPGLYP78DIEKEN;2JMSMEZZ2MIK61M3600Y98TXP575MV;1352404993;Windows;Chrome-23;United States;98.111.132.148;21;123;35;0;1859;1;1;2
A2CS8ESKDX6EBA;2PD42J1LY58BRGKVYT7FQHD4ZV85Q0;2JMSMEZZ2MIK61M3600Y98TXP575MV;1352404993;Windows;Chrome-21;India;202.153.41.133;7;48;85;48;5151;-1;-1;51
A2SYRFPPV9WDEG;20TSNQQ7Q670PF3TAYI18TQFUUFAUG;2JMSMEZZ2MIK61M3600Y98TXP575MV;1352404993;Windows;Firefox-19;United States;66.75.77.46;18;281;300;0;2604;-1;1;141
A357FWP7KGPP8;2I6BDPGFL6VC9ACIPY4WOOV4L4LJ4I;2JMSMEZZ2MIK61M3600Y98TXP575MV;1352404995;Windows;Chrome-22;United States;24.231.202.163;6;31;40;31;3283;1;-1;52
ABOEYY9Y0PFRI;2JJJ85OZIZEH6ONYKZFQBEWSQIQAYE;2JMSMEZZ2MIK61M3600Y98TXP575MV;1352404995;Windows;Chrome-23;United States;75.64.25.219;10;37;29;37;3310;-1;-1;73
A2QLSHXNCHBRN4;2MGK2JE1M7PK4NY0UHFZGC07EWPPW9;2JMSMEZZ2MIK61M3600Y98TXP575MV;1352404996;Windows;Firefox-16;United States;24.60.89.121;19;298;225;0;4199;-1;1;147
A2J2517WAWGQBW;2REVHVKCJ0114GKDHI0KWW641KX868;2JMSMEZZ2MIK61M3600Y98TXP575MV;1352404996;;;United States;71.125.243.122;11;37;56;0;;-1;1;0
A85EHBX1CKMI2;2SY2NJQ2172ZTN3Q4MBLIVEENYVPX2;2JMSMEZZ2MIK61M3600Y98TXP575MV;1352404996;Mac;Firefox-16;United States;24.13.106.19;24;114;134;0;3297;-1;1;165
A3E63RE3CI5ZH5;2JM8P9Y38TWWHWG1S99M6JTD9KZIZH;2JMSMEZZ2MIK61M3600Y98TXP575MV;1352404996;Windows;Chrome-23;United States;75.145.245.85;28;282;465;0;3205;-1;1;173
A33RPCZ6KOF549;20QN5F3Q0JG5DCZWA7PBA9FCLPLGCO;2JMSMEZZ2MIK61M3600Y98TXP575MV;1352404997;Windows;Chrome-23;United States;71.193.173.170;6;168;223;168;2481;0;-1;51
A2M0X98KWWCAA;22KZVXX2Q45UEY3XWREI21NV1L8Q8M;2JMSMEZZ2MIK61M3600Y98TXP575MV;1352404997;Windows;Chrome-22;United States;69.88.216.102;3;84;90;84;3503;-1;-1;20
A2B3YHRCG8QT00;2BG3W5XH0JPPCWFTWPGLYP78DIEKEN;2JMSMEZZ2MIK61M3600Y98TXP575MV;1352404998;Windows;Chrome-23;United States;98.111.132.148;22;500;80;0;1862;1;1;2
ALEW8U625N446;2JJNDWIOV1S7C1GMRRL19YD21K1IXK;2JMSMEZZ2MIK61M3600Y98TXP575MV;1352404998;Windows;Firefox-14;Iceland;101.61.112.153;13;323;300;0;5073;-1;1;101
A2SYRFPPV9WDEG;20TSNQQ7Q670PF3TAYI18TQFUUFAUG;2JMSMEZZ2MIK61M3600Y98TXP575MV;1352404998;Windows;Firefox-19;United States;66.75.77.46;19;26;15;0;2019;-1;1;144
A4ZUF1F9DPHVQ;2YRFYQS1CSTM8TA0B3VII1E16KQOLZ;2JMSMEZZ2MIK61M3600Y98TXP575MV;1352404998;Linux;Firefox-10;United States;130.49.222.83;2;331;225;331;13246;1;-1;8
A1SJS13KVJV1V;26UDIPDOBDDPS3W5I54DEXMEWNW0BY;2JMSMEZZ2MIK61M3600Y98TXP575MV;1352404999;Windows;Chrome-22;United States;108.85.210.104;9;147;165;147;3813;1;-1;72
A2WB6PTJR698VP;23EOFXRDS4ICLSBML8AFS11DVFNUX3;2JMSMEZZ2MIK61M3600Y98TXP575MV;1352404999;Windows;Chrome-23;Macedonia, The Former Yugoslav Republic of;95.86.9.112;15;385;300;0;3546;-1;1;72
AVEEXNWYXBSGM;259VKCJ011K2RIWG7VHWC18QX3N8AY;2JMSMEZZ2MIK61M3600Y98TXP575MV;1352404999;Windows;Firefox-16;United States;74.32.9.229;12;198;166;0;5192;0;1;72
A1QSV6T2K6P8NU;2CYDG67D1X3VKTX9AZB2PE1P0MCHAL;2JMSMEZZ2MIK61M3600Y98TXP575MV;1352404999;Windows;Chrome-23;United States;75.64.167.15;9;283;60;283;10314;1;-1;61
A2N2KQXUPLNDWI;25CCJ011K2743LMTO7X1EN49NU7AC5;2JMSMEZZ2MIK61M3600Y98TXP575MV;1352404999;Windows;Firefox-16;United States;24.173.74.242;12;156;120;0;7842;-1;1;43
A2J2517WAWGQBW;2REVHVKCJ0114GKDHI0KWW641KX868;2JMSMEZZ2MIK61M3600Y98TXP575MV;1352404999;;;United States;71.125.243.122;12;355;14;0;;-1;1;0
A357FWP7KGPP8;2I6BDPGFL6VC9ACIPY4WOOV4L4LJ4I;2JMSMEZZ2MIK61M3600Y98TXP575MV;1352405000;Windows;Chrome-22;United States;24.231.202.163;7;23;20;23;3322;1;-1;61
A3NSQ31TWXF8Z6;2P5EY5COW0LGBDGHA26LI6VQNWP5W4;2JMSMEZZ2MIK61M3600Y98TXP575MV;1352405000;Windows;Firefox-16;India;180.215.178.226;10;301;360;301;4705;0;-1;53
A4CAM3DGFATWY;2DGH1XERSQV6Q5YYFTK3NVWDOHB08Z;2JMSMEZZ2MIK61M3600Y98TXP575MV;1352405001;Windows;Firefox-16;United States;75.94.22.70;12;320;115;0;5828;1;1;31
A3E63RE3CI5ZH5;2JM8P9Y38TWWHWG1S99M6JTD9KZIZH;2JMSMEZZ2MIK61M3600Y98TXP575MV;1352405001;Windows;Chrome-23;United States;75.145.245.85;29;143;250;0;2515;-1;1;176
A33RPCZ6KOF549;20QN5F3Q0JG5DCZWA7PBA9FCLPLGCO;2JMSMEZZ2MIK61M3600Y98TXP575MV;1352405002;Windows;Chrome-23;United States;71.193.173.170;7;32;25;32;2256;0;-1;59
A2B3YHRCG8QT00;2BG3W5XH0JPPCWFTWPGLYP78DIEKEN;2JMSMEZZ2MIK61M3600Y98TXP575MV;1352405002;Windows;Chrome-23;United States;98.111.132.148;23;141;50;0;1728;1;1;2
A2CS8ESKDX6EBA;2PD42J1LY58BRGKVYT7FQHD4ZV85Q0;2JMSMEZZ2MIK61M3600Y98TXP575MV;1352405002;Windows;Chrome-21;India;202.153.41.133;8;60;40;60;5598;-1;-1;56
A85EHBX1CKMI2;2SY2NJQ2172ZTN3Q4MBLIVEENYVPX2;2JMSMEZZ2MIK61M3600Y98TXP575MV;1352405002;Mac;Firefox-16;United States;24.13.106.19;25;226;254;0;3177;-1;1;174
A3W18XZCM3572D;25IVJ8EBDPGF5K8LN7Q9XNDZBLO0FG;2JMSMEZZ2MIK61M3600Y98TXP575MV;1352405003;Windows;Chrome-23;United States;68.174.235.133;1;9;9;9;5108;1;-1;10
ABOEYY9Y0PFRI;2JJJ85OZIZEH6ONYKZFQBEWSQIQAYE;2JMSMEZZ2MIK61M3600Y98TXP575MV;1352405003;Windows;Chrome-23;United States;75.64.25.219;11;21;39;0;6395;-1;1;75
A2QLSHXNCHBRN4;2MGK2JE1M7PK4NY0UHFZGC07EWPPW9;2JMSMEZZ2MIK61M3600Y98TXP575MV;1352405004;Windows;Firefox-16;United States;24.60.89.121;20;37;35;0;5709;-1;1;157
A2WB6PTJR698VP;23EOFXRDS4ICLSBML8AFS11DVFNUX3;2JMSMEZZ2MIK61M3600Y98TXP575MV;1352405004;Windows;Chrome-23;Macedonia, The Former Yugoslav Republic of;95.86.9.112;16;180;100;0;2815;-1;1;74
A1P8M5BKOTAA8I;2QGOGQSCM6IAUG5NG5LU60OTDH2HHW;2JMSMEZZ2MIK61M3600Y98TXP575MV;1352405004;Windows;Chrome-22;United States;72.192.186.131;1;436;500;436;7772;-1;-1;9
A2J2517WAWGQBW;2REVHVKCJ0114GKDHI0KWW641KX868;2JMSMEZZ2MIK61M3600Y98TXP575MV;1352405004;;;United States;71.125.243.122;13;56;24;0;;-1;1;0
A2SYRFPPV9WDEG;20TSNQQ7Q670PF3TAYI18TQFUUFAUG;2JMSMEZZ2MIK61M3600Y98TXP575MV;1352405005;Windows;Firefox-19;United States;66.75.77.46;20;120;75;0;4473;-1;1;148
A1SJS13KVJV1V;26UDIPDOBDDPS3W5I54DEXMEWNW0BY;2JMSMEZZ2MIK61M3600Y98TXP575MV;1352405005;Windows;Chrome-22;United States;108.85.210.104;10;66;70;66;4021;1;-1;82
A1QSV6T2K6P8NU;2CYDG67D1X3VKTX9AZB2PE1P0MCHAL;2JMSMEZZ2MIK61M3600Y98TXP575MV;1352405005;Windows;Chrome-23;United States;75.64.167.15;10;171;120;171;3557;1;-1;67
A2B3YHRCG8QT00;2BG3W5XH0JPPCWFTWPGLYP78DIEKEN;2JMSMEZZ2MIK61M3600Y98TXP575MV;1352405005;Windows;Chrome-23;United States;98.111.132.148;24;11;20;0;1524;1;1;4
AVEEXNWYXBSGM;259VKCJ011K2RIWG7VHWC18QX3N8AY;2JMSMEZZ2MIK61M3600Y98TXP575MV;1352405005;Windows;Firefox-16;United States;74.32.9.229;13;68;70;0;4297;0;1;82
A33RPCZ6KOF549;20QN5F3Q0JG5DCZWA7PBA9FCLPLGCO;2JMSMEZZ2MIK61M3600Y98TXP575MV;1352405006;Windows;Chrome-23;United States;71.193.173.170;8;459;562;459;2513;0;-1;67
A357FWP7KGPP8;2I6BDPGFL6VC9ACIPY4WOOV4L4LJ4I;2JMSMEZZ2MIK61M3600Y98TXP575MV;1352405006;Windows;Chrome-22;United States;24.231.202.163;8;167;120;167;2886;1;-1;67
A3E63RE3CI5ZH5;2JM8P9Y38TWWHWG1S99M6JTD9KZIZH;2JMSMEZZ2MIK61M3600Y98TXP575MV;1352405006;Windows;Chrome-23;United States;75.145.245.85;30;186;159;0;2482;-1;1;185
A3NSQ31TWXF8Z6;2P5EY5COW0LGBDGHA26LI6VQNWP5W4;2JMSMEZZ2MIK61M3600Y98TXP575MV;1352405006;Windows;Firefox-16;India;180.215.178.226;11;115;100;0;3081;0;1;62
A85EHBX1CKMI2;2SY2NJQ2172ZTN3Q4MBLIVEENYVPX2;2JMSMEZZ2MIK61M3600Y98TXP575MV;1352405007;Mac;Firefox-16;United States;24.13.106.19;26;251;226;0;2786;-1;1;184
A4CAM3DGFATWY;2DGH1XERSQV6Q5YYFTK3NVWDOHB08Z;2JMSMEZZ2MIK61M3600Y98TXP575MV;1352405007;Windows;Firefox-16;United States;75.94.22.70;13;378;225;0;3638;1;1;34
ALEW8U625N446;2JJNDWIOV1S7C1GMRRL19YD21K1IXK;2JMSMEZZ2MIK61M3600Y98TXP575MV;1352405007;Windows;Firefox-14;Iceland;101.61.112.153;14;84;80;0;6133;-1;1;111
A2CS8ESKDX6EBA;2PD42J1LY58BRGKVYT7FQHD4ZV85Q0;2JMSMEZZ2MIK61M3600Y98TXP575MV;1352405007;Windows;Chrome-21;India;202.153.41.133;9;469;500;469;3225;-1;-1;66
A2N2KQXUPLNDWI;25CCJ011K2743LMTO7X1EN49NU7AC5;2JMSMEZZ2MIK61M3600Y98TXP575MV;1352405007;Windows;Firefox-16;United States;24.173.74.242;13;41;40;0;5710;-1;1;53
A2J2517WAWGQBW;2REVHVKCJ0114GKDHI0KWW641KX868;2JMSMEZZ2MIK61M3600Y98TXP575MV;1352405008;;;United States;71.125.243.122;14;31;40;0;;-1;1;0
A2QLSHXNCHBRN4;2MGK2JE1M7PK4NY0UHFZGC07EWPPW9;2JMSMEZZ2MIK61M3600Y98TXP575MV;1352405008;Windows;Firefox-16;United States;24.60.89.121;21;41;45;0;2367;-1;1;167
A2WB6PTJR698VP;23EOFXRDS4ICLSBML8AFS11DVFNUX3;2JMSMEZZ2MIK61M3600Y98TXP575MV;1352405009;Windows;Chrome-23;Macedonia, The Former Yugoslav Republic of;95.86.9.112;17;126;75;0;2806;-1;1;77
A2B3YHRCG8QT00;2BG3W5XH0JPPCWFTWPGLYP78DIEKEN;2JMSMEZZ2MIK61M3600Y98TXP575MV;1352405009;Windows;Chrome-23;United States;98.111.132.148;25;95;60;0;1689;1;1;8
A2SYRFPPV9WDEG;20TSNQQ7Q670PF3TAYI18TQFUUFAUG;2JMSMEZZ2MIK61M3600Y98TXP575MV;1352405010;Windows;Firefox-19;United States;66.75.77.46;21;55;50;0;2225;-1;1;158
A4ZUF1F9DPHVQ;2YRFYQS1CSTM8TA0B3VII1E16KQOLZ;2JMSMEZZ2MIK61M3600Y98TXP575MV;1352405010;Linux;Firefox-10;United States;130.49.222.83;3;413;385;413;9731;1;-1;18
A1SJS13KVJV1V;26UDIPDOBDDPS3W5I54DEXMEWNW0BY;2JMSMEZZ2MIK61M3600Y98TXP575MV;1352405010;Windows;Chrome-22;United States;108.85.210.104;11;412;500;0;3093;1;1;90
A3W18XZCM3572D;25IVJ8EBDPGF5K8LN7Q9XNDZBLO0FG;2JMSMEZZ2MIK61M3600Y98TXP575MV;1352405011;Windows;Chrome-23;United States;68.174.235.133;2;414;230;414;5134;1;-1;12
A357FWP7KGPP8;2I6BDPGFL6VC9ACIPY4WOOV4L4LJ4I;2JMSMEZZ2MIK61M3600Y98TXP575MV;1352405011;Windows;Chrome-22;United States;24.231.202.163;9;477;300;477;2507;1;-1;71
A33RPCZ6KOF549;20QN5F3Q0JG5DCZWA7PBA9FCLPLGCO;2JMSMEZZ2MIK61M3600Y98TXP575MV;1352405011;Windows;Chrome-23;United States;71.193.173.170;9;400;480;400;2763;0;-1;76
A3E63RE3CI5ZH5;2JM8P9Y38TWWHWG1S99M6JTD9KZIZH;2JMSMEZZ2MIK61M3600Y98TXP575MV;1352405012;Windows;Chrome-23;United States;75.145.245.85;31;137;150;0;3006;-1;1;195
A85EHBX1CKMI2;2SY2NJQ2172ZTN3Q4MBLIVEENYVPX2;2JMSMEZZ2MIK61M3600Y98TXP575MV;1352405012;Mac;Firefox-16;United States;24.13.106.19;27;41;25;0;3154;-1;1;187
AVEEXNWYXBSGM;259VKCJ011K2RIWG7VHWC18QX3N8AY;2JMSMEZZ2MIK61M3600Y98TXP575MV;1352405012;Windows;Firefox-16;United States;74.32.9.229;14;341;145;0;4134;0;1;82
A1P8M5BKOTAA8I;2QGOGQSCM6IAUG5NG5LU60OTDH2HHW;2JMSMEZZ2MIK61M3600Y98TXP575MV;1352405012;Windows;Chrome-22;United States;72.192.186.131;2;52;38;52;5830;-1;-1;16
A33OKQRU00D6AH;2I64BLYHVI4486FTJ5ZDTEZV47HV11;2JMSMEZZ2MIK61M3600Y98TXP575MV;1352405012;Windows;Firefox-16;India;14.99.102.43;1;310;0;310;25830;-1;-1;0
A2B3YHRCG8QT00;2BG3W5XH0JPPCWFTWPGLYP78DIEKEN;2JMSMEZZ2MIK61M3600Y98TXP575MV;1352405013;Windows;Chrome-23;United States;98.111.132.148;26;90;50;0;1678;1;1;10
A2CS8ESKDX6EBA;2PD42J1LY58BRGKVYT7FQHD4ZV85Q0;2JMSMEZZ2MIK61M3600Y98TXP575MV;1352405013;Windows;Chrome-21;India;202.153.41.133;10;436;450;436;3015;-1;-1;76
A4CAM3DGFATWY;2DGH1XERSQV6Q5YYFTK3NVWDOHB08Z;2JMSMEZZ2MIK61M3600Y98TXP575MV;1352405013;Windows;Firefox-16;United States;75.94.22.70;14;267;150;0;4486;1;1;36
ABOEYY9Y0PFRI;2JJJ85OZIZEH6ONYKZFQBEWSQIQAYE;2JMSMEZZ2MIK61M3600Y98TXP575MV;1352405014;Windows;Chrome-23;United States;75.64.25.219;12;340;185;0;8166;-1;1;77
A2WB6PTJR698VP;23EOFXRDS4ICLSBML8AFS11DVFNUX3;2JMSMEZZ2MIK61M3600Y98TXP575MV;1352405014;Windows;Chrome-23;Macedonia, The Former Yugoslav Republic of;95.86.9.112;18;132;50;0;2740;-1;1;77
A3NSQ31TWXF8Z6;2P5EY5COW0LGBDGHA26LI6VQNWP5W4;2JMSMEZZ2MIK61M3600Y98TXP575MV;1352405014;Windows;Firefox-16;India;180.215.178.226;12;246;230;0;4977;0;1;72
ALEW8U625N446;2JJNDWIOV1S7C1GMRRL19YD21K1IXK;2JMSMEZZ2MIK61M3600Y98TXP575MV;1352405014;Windows;Firefox-14;Iceland;101.61.112.153;15;203;200;0;4748;-1;1;121
A1QSV6T2K6P8NU;2CYDG67D1X3VKTX9AZB2PE1P0MCHAL;2JMSMEZZ2MIK61M3600Y98TXP575MV;1352405014;Windows;Chrome-23;United States;75.64.167.15;11;49;32;0;7022;1;1;72
A2SYRFPPV9WDEG;20TSNQQ7Q670PF3TAYI18TQFUUFAUG;2JMSMEZZ2MIK61M3600Y98TXP575MV;1352405015;Windows;Firefox-19;United States;66.75.77.46;22;74;75;0;2524;-1;1;168
A2QLSHXNCHBRN4;2MGK2JE1M7PK4NY0UHFZGC07EWPPW9;2JMSMEZZ2MIK61M3600Y98TXP575MV;1352405016;Windows;Firefox-16;United States;24.60.89.121;22;199;186;0;4262;-1;1;177
A2N2KQXUPLNDWI;25CCJ011K2743LMTO7X1EN49NU7AC5;2JMSMEZZ2MIK61M3600Y98TXP575MV;1352405016;Windows;Firefox-16;United States;24.173.74.242;14;392;200;0;5796;-1;1;54
A357FWP7KGPP8;2I6BDPGFL6VC9ACIPY4WOOV4L4LJ4I;2JMSMEZZ2MIK61M3600Y98TXP575MV;1352405016;Windows;Chrome-22;United States;24.231.202.163;10;42;30;42;2263;1;-1;77
A33RPCZ6KOF549;20QN5F3Q0JG5DCZWA7PBA9FCLPLGCO;2JMSMEZZ2MIK61M3600Y98TXP575MV;1352405017;Windows;Chrome-23;United States;71.193.173.170;10;129;75;129;3177;0;-1;79
A85EHBX1CKMI2;2SY2NJQ2172ZTN3Q4MBLIVEENYVPX2;2JMSMEZZ2MIK61M3600Y98TXP575MV;1352405017;Mac;Firefox-16;United States;24.13.106.19;28;271;187;0;3059;-1;1;192
A2B3YHRCG8QT00;2BG3W5XH0JPPCWFTWPGLYP78DIEKEN;2JMSMEZZ2MIK61M3600Y98TXP575MV;1352405017;Windows;Chrome-23;United States;98.111.132.148;27;321;90;0;1641;1;1;10
A3E63RE3CI5ZH5;2JM8P9Y38TWWHWG1S99M6JTD9KZIZH;2JMSMEZZ2MIK61M3600Y98TXP575MV;1352405017;Windows;Chrome-23;United States;75.145.245.85;32;190;200;0;2979;-1;1;205
AVEEXNWYXBSGM;259VKCJ011K2RIWG7VHWC18QX3N8AY;2JMSMEZZ2MIK61M3600Y98TXP575MV;1352405018;Windows;Firefox-16;United States;74.32.9.229;15;461;500;0;2791;0;1;92
A1SJS13KVJV1V;26UDIPDOBDDPS3W5I54DEXMEWNW0BY;2JMSMEZZ2MIK61M3600Y98TXP575MV;1352405018;Windows;Chrome-22;United States;108.85.210.104;12;102;86;0;4835;1;1;99
A3W18XZCM3572D;25IVJ8EBDPGF5K8LN7Q9XNDZBLO0FG;2JMSMEZZ2MIK61M3600Y98TXP575MV;1352405018;Windows;Chrome-23;United States;68.174.235.133;3;376;390;376;4349;1;-1;22
A2J2517WAWGQBW;2REVHVKCJ0114GKDHI0KWW641KX868;2JMSMEZZ2MIK61M3600Y98TXP575MV;1352405019;;;United States;71.125.243.122;15;102;45;0;;-1;1;0
A4CAM3DGFATWY;2DGH1XERSQV6Q5YYFTK3NVWDOHB08Z;2JMSMEZZ2MIK61M3600Y98TXP575MV;1352405019;Windows;Firefox-16;United States;75.94.22.70;15;65;35;0;3445;1;1;38
A1P8M5BKOTAA8I;2QGOGQSCM6IAUG5NG5LU60OTDH2HHW;2JMSMEZZ2MIK61M3600Y98TXP575MV;1352405020;Windows;Chrome-22;United States;72.192.186.131;3;376;500;376;5666;-1;-1;23
A2SYRFPPV9WDEG;20TSNQQ7Q670PF3TAYI18TQFUUFAUG;2JMSMEZZ2MIK61M3600Y98TXP575MV;1352405020;Windows;Firefox-19;United States;66.75.77.46;23;186;200;0;2408;-1;1;178
ABOEYY9Y0PFRI;2JJJ85OZIZEH6ONYKZFQBEWSQIQAYE;2JMSMEZZ2MIK61M3600Y98TXP575MV;1352405021;Windows;Chrome-23;United States;75.64.25.219;13;440;320;0;4810;-1;1;83
A4ZUF1F9DPHVQ;2YRFYQS1CSTM8TA0B3VII1E16KQOLZ;2JMSMEZZ2MIK61M3600Y98TXP575MV;1352405021;Linux;Firefox-10;United States;130.49.222.83;4;10;12;10;8967;1;-1;27
A2B3YHRCG8QT00;2BG3W5XH0JPPCWFTWPGLYP78DIEKEN;2JMSMEZZ2MIK61M3600Y98TXP575MV;1352405021;Windows;Chrome-23;United States;98.111.132.148;28;60;50;0;1764;1;1;19
A3NSQ31TWXF8Z6;2P5EY5COW0LGBDGHA26LI6VQNWP5W4;2JMSMEZZ2MIK61M3600Y98TXP575MV;1352405021;Windows;Firefox-16;India;180.215.178.226;13;456;400;0;3196;0;1;81
A2CS8ESKDX6EBA;2PD42J1LY58BRGKVYT7FQHD4ZV85Q0;2JMSMEZZ2MIK61M3600Y98TXP575MV;1352405022;Windows;Chrome-21;India;202.153.41.133;11;98;120;0;6239;-1;1;84
A2QLSHXNCHBRN4;2MGK2JE1M7PK4NY0UHFZGC07EWPPW9;2JMSMEZZ2MIK61M3600Y98TXP575MV;1352405022;Windows;Firefox-16;United States;24.60.89.121;23;183;158;0;3832;-1;1;186
A3E63RE3CI5ZH5;2JM8P9Y38TWWHWG1S99M6JTD9KZIZH;2JMSMEZZ2MIK61M3600Y98TXP575MV;1352405022;Windows;Chrome-23;United States;75.145.245.85;33;386;385;0;2053;-1;1;215
A2M0X98KWWCAA;22KZVXX2Q45UEY3XWREI21NV1L8Q8M;2JMSMEZZ2MIK61M3600Y98TXP575MV;1352405022;Windows;Chrome-22;United States;69.88.216.102;4;153;75;153;22199;-1;-1;21
ALEW8U625N446;2JJNDWIOV1S7C1GMRRL19YD21K1IXK;2JMSMEZZ2MIK61M3600Y98TXP575MV;1352405022;Windows;Firefox-14;Iceland;101.61.112.153;16;328;350;0;4956;-1;1;131
A85EHBX1CKMI2;2SY2NJQ2172ZTN3Q4MBLIVEENYVPX2;2JMSMEZZ2MIK61M3600Y98TXP575MV;1352405022;Mac;Firefox-16;United States;24.13.106.19;29;41;44;0;2619;-1;1;202
A33RPCZ6KOF549;20QN5F3Q0JG5DCZWA7PBA9FCLPLGCO;2JMSMEZZ2MIK61M3600Y98TXP575MV;1352405022;Windows;Chrome-23;United States;71.193.173.170;11;90;56;0;1897;0;1;83
A357FWP7KGPP8;2I6BDPGFL6VC9ACIPY4WOOV4L4LJ4I;2JMSMEZZ2MIK61M3600Y98TXP575MV;1352405022;Windows;Chrome-22;United States;24.231.202.163;11;269;90;0;2970;1;1;77
A3W18XZCM3572D;25IVJ8EBDPGF5K8LN7Q9XNDZBLO0FG;2JMSMEZZ2MIK61M3600Y98TXP575MV;1352405023;Windows;Chrome-23;United States;68.174.235.133;4;10;10;10;2928;1;-1;32
AVEEXNWYXBSGM;259VKCJ011K2RIWG7VHWC18QX3N8AY;2JMSMEZZ2MIK61M3600Y98TXP575MV;1352405024;Windows;Firefox-16;United States;74.32.9.229;16;116;78;0;2950;0;1;97
A1SJS13KVJV1V;26UDIPDOBDDPS3W5I54DEXMEWNW0BY;2JMSMEZZ2MIK61M3600Y98TXP575MV;1352405024;Windows;Chrome-22;United States;108.85.210.104;13;243;170;0;3940;1;1;105
A2J2517WAWGQBW;2REVHVKCJ0114GKDHI0KWW641KX868;2JMSMEZZ2MIK61M3600Y98TXP575MV;1352405024;;;United States;71.125.243.122;16;205;68;0;;-1;1;0
A2SYRFPPV9WDEG;20TSNQQ7Q670PF3TAYI18TQFUUFAUG;2JMSMEZZ2MIK61M3600Y98TXP575MV;1352405025;Windows;Firefox-19;United States;66.75.77.46;24;441;500;0;2315;-1;1;187
A33OKQRU00D6AH;2I64BLYHVI4486FTJ5ZDTEZV47HV11;2JMSMEZZ2MIK61M3600Y98TXP575MV;1352405025;Windows;Firefox-16;India;14.99.102.43;2;40;50;40;9645;-1;-1;8
A2B3YHRCG8QT00;2BG3W5XH0JPPCWFTWPGLYP78DIEKEN;2JMSMEZZ2MIK61M3600Y98TXP575MV;1352405025;Windows;Chrome-23;United States;98.111.132.148;29;15;5;0;1358;1;1;19
A4CAM3DGFATWY;2DGH1XERSQV6Q5YYFTK3NVWDOHB08Z;2JMSMEZZ2MIK61M3600Y98TXP575MV;1352405026;Windows;Firefox-16;United States;75.94.22.70;16;460;180;0;3994;1;1;38
A3E63RE3CI5ZH5;2JM8P9Y38TWWHWG1S99M6JTD9KZIZH;2JMSMEZZ2MIK61M3600Y98TXP575MV;1352405026;Windows;Chrome-23;United States;75.145.245.85;34;208;250;0;1726;-1;1;224
A1P8M5BKOTAA8I;2QGOGQSCM6IAUG5NG5LU60OTDH2HHW;2JMSMEZZ2MIK61M3600Y98TXP575MV;1352405026;Windows;Chrome-22;United States;72.192.186.131;4;19;12;19;4118;-1;-1;27
A2N2KQXUPLNDWI;25CCJ011K2743LMTO7X1EN49NU7AC5;2JMSMEZZ2MIK61M3600Y98TXP575MV;1352405026;Windows;Firefox-16;United States;24.173.74.242;15;99;138;0;8213;-1;1;60
A2M0X98KWWCAA;22KZVXX2Q45UEY3XWREI21NV1L8Q8M;2JMSMEZZ2MIK61M3600Y98TXP575MV;1352405027;Windows;Chrome-22;United States;69.88.216.102;5;226;170;226;2502;-1;-1;28
A33RPCZ6KOF549;20QN5F3Q0JG5DCZWA7PBA9FCLPLGCO;2JMSMEZZ2MIK61M3600Y98TXP575MV;1352405027;Windows;Chrome-23;United States;71.193.173.170;12;19;13;0;3022;0;1;88
A1QSV6T2K6P8NU;2CYDG67D1X3VKTX9AZB2PE1P0MCHAL;2JMSMEZZ2MIK61M3600Y98TXP575MV;1352405027;Windows;Chrome-23;United States;75.64.167.15;12;241;20;0;10873;1;1;72
A3NSQ31TWXF8Z6;2P5EY5COW0LGBDGHA26LI6VQNWP5W4;2JMSMEZZ2MIK61M3600Y98TXP575MV;1352405028;Windows;Firefox-16;India;180.215.178.226;14;30;40;0;3092;0;1;88
A2J2517WAWGQBW;2REVHVKCJ0114GKDHI0KWW641KX868;2JMSMEZZ2MIK61M3600Y98TXP575MV;1352405028;;;United States;71.125.243.122;17;16;89;0;;-1;1;0
ALEW8U625N446;2JJNDWIOV1S7C1GMRRL19YD21K1IXK;2JMSMEZZ2MIK61M3600Y98TXP575MV;1352405029;Windows;Firefox-14;Iceland;101.61.112.153;17;12;15;0;3818;-1;1;139
A2QLSHXNCHBRN4;2MGK2JE1M7PK4NY0UHFZGC07EWPPW9;2JMSMEZZ2MIK61M3600Y98TXP575MV;1352405029;Windows;Firefox-16;United States;24.60.89.121;24;369;309;0;4921;-1;1;195
A85EHBX1CKMI2;2SY2NJQ2172ZTN3Q4MBLIVEENYVPX2;2JMSMEZZ2MIK61M3600Y98TXP575MV;1352405029;Mac;Firefox-16;United States;24.13.106.19;30;193;198;0;4758;-1;1;212
A3W18XZCM3572D;25IVJ8EBDPGF5K8LN7Q9XNDZBLO0FG;2JMSMEZZ2MIK61M3600Y98TXP575MV;1352405029;Windows;Chrome-23;United States;68.174.235.133;5;299;375;299;3573;1;-1;40
A2B3YHRCG8QT00;2BG3W5XH0JPPCWFTWPGLYP78DIEKEN;2JMSMEZZ2MIK61M3600Y98TXP575MV;1352405030;Windows;Chrome-23;United States;98.111.132.148;30;332;80;0;2002;1;1;19
A357FWP7KGPP8;2I6BDPGFL6VC9ACIPY4WOOV4L4LJ4I;2JMSMEZZ2MIK61M3600Y98TXP575MV;1352405030;Windows;Chrome-22;United States;24.231.202.163;12;260;200;0;5105;1;1;84
ABOEYY9Y0PFRI;2JJJ85OZIZEH6ONYKZFQBEWSQIQAYE;2JMSMEZZ2MIK61M3600Y98TXP575MV;1352405030;Windows;Chrome-23;United States;75.64.25.219;14;54;36;0;5896;-1;1;88
AVEEXNWYXBSGM;259VKCJ011K2RIWG7VHWC18QX3N8AY;2JMSMEZZ2MIK61M3600Y98TXP575MV;1352405030;Windows;Firefox-16;United States;74.32.9.229;17;432;440;0;3972;0;1;107
A3E63RE3CI5ZH5;2JM8P9Y38TWWHWG1S99M6JTD9KZIZH;2JMSMEZZ2MIK61M3600Y98TXP575MV;1352405031;Windows;Chrome-23;United States;75.145.245.85;35;422;475;0;2124;-1;1;233
A1SJS13KVJV1V;26UDIPDOBDDPS3W5I54DEXMEWNW0BY;2JMSMEZZ2MIK61M3600Y98TXP575MV;1352405031;Windows;Chrome-22;United States;108.85.210.104;14;312;335;0;4451;1;1;115
A2CS8ESKDX6EBA;2PD42J1LY58BRGKVYT7FQHD4ZV85Q0;2JMSMEZZ2MIK61M3600Y98TXP575MV;1352405031;Windows;Chrome-21;India;202.153.41.133;12;11;12;0;5289;-1;1;94
A2M0X98KWWCAA;22KZVXX2Q45UEY3XWREI21NV1L8Q8M;2JMSMEZZ2MIK61M3600Y98TXP575MV;1352405032;Windows;Chrome-22;United States;69.88.216.102;6;36;40;36;2480;-1;-1;38
A4CAM3DGFATWY;2DGH1XERSQV6Q5YYFTK3NVWDOHB08Z;2JMSMEZZ2MIK61M3600Y98TXP575MV;1352405032;Windows;Firefox-16;United States;75.94.22.70;17;235;115;0;3472;1;1;39
A33RPCZ6KOF549;20QN5F3Q0JG5DCZWA7PBA9FCLPLGCO;2JMSMEZZ2MIK61M3600Y98TXP575MV;1352405033;Windows;Chrome-23;United States;71.193.173.170;13;138;65;0;3518;0;1;89
A1P8M5BKOTAA8I;2QGOGQSCM6IAUG5NG5LU60OTDH2HHW;2JMSMEZZ2MIK61M3600Y98TXP575MV;1352405033;Windows;Chrome-22;United States;72.192.186.131;5;190;390;190;4727;-1;-1;28
A2J2517WAWGQBW;2REVHVKCJ0114GKDHI0KWW641KX868;2JMSMEZZ2MIK61M3600Y98TXP575MV;1352405033;;;United States;71.125.243.122;18;13;67;0;;-1;1;0
A2N2KQXUPLNDWI;25CCJ011K2743LMTO7X1EN49NU7AC5;2JMSMEZZ2MIK61M3600Y98TXP575MV;1352405034;Windows;Firefox-16;United States;24.173.74.242;16;118;180;0;4681;-1;1;65
A2QLSHXNCHBRN4;2MGK2JE1M7PK4NY0UHFZGC07EWPPW9;2JMSMEZZ2MIK61M3600Y98TXP575MV;1352405034;Windows;Firefox-16;United States;24.60.89.121;25;41;30;0;2872;-1;1;202
A3W18XZCM3572D;25IVJ8EBDPGF5K8LN7Q9XNDZBLO0FG;2JMSMEZZ2MIK61M3600Y98TXP575MV;1352405034;Windows;Chrome-23;United States;68.174.235.133;6;119;120;119;2746;1;-1;50
A2B3YHRCG8QT00;2BG3W5XH0JPPCWFTWPGLYP78DIEKEN;2JMSMEZZ2MIK61M3600Y98TXP575MV;1352405034;Windows;Chrome-23;United States;98.111.132.148;31;132;50;0;1662;1;1;19
ALEW8U625N446;2JJNDWIOV1S7C1GMRRL19YD21K1IXK;2JMSMEZZ2MIK61M3600Y98TXP575MV;1352405035;Windows;Firefox-14;Iceland;101.61.112.153;18;49;30;0;3545;-1;1;143
A4ZUF1F9DPHVQ;2YRFYQS1CSTM8TA0B3VII1E16KQOLZ;2JMSMEZZ2MIK61M3600Y98TXP575MV;1352405035;Linux;Firefox-10;United States;130.49.222.83;5;78;35;78;11047;1;-1;28
A3NSQ31TWXF8Z6;2P5EY5COW0LGBDGHA26LI6VQNWP5W4;2JMSMEZZ2MIK61M3600Y98TXP575MV;1352405035;Windows;Firefox-16;India;180.215.178.226;15;372;440;0;4556;0;1;97
A85EHBX1CKMI2;2SY2NJQ2172ZTN3Q4MBLIVEENYVPX2;2JMSMEZZ2MIK61M3600Y98TXP575MV;1352405035;Mac;Firefox-16;United States;24.13.106.19;31;113;87;0;3940;-1;1;219
A1QSV6T2K6P8NU;2CYDG67D1X3VKTX9AZB2PE1P0MCHAL;2JMSMEZZ2MIK61M3600Y98TXP575MV;1352405035;Windows;Chrome-23;United States;75.64.167.15;13;72;50;0;5969;1;1;78
A3E63RE3CI5ZH5;2JM8P9Y38TWWHWG1S99M6JTD9KZIZH;2JMSMEZZ2MIK61M3600Y98TXP575MV;1352405036;Windows;Chrome-23;United States;75.145.245.85;36;382;352;0;2534;-1;1;243
A2J2517WAWGQBW;2REVHVKCJ0114GKDHI0KWW641KX868;2JMSMEZZ2MIK61M3600Y98TXP575MV;1352405036;;;United States;71.125.243.122;19;305;45;0;;-1;1;0
ABOEYY9Y0PFRI;2JJJ85OZIZEH6ONYKZFQBEWSQIQAYE;2JMSMEZZ2MIK61M3600Y98TXP575MV;1352405036;Windows;Chrome-23;United States;75.64.25.219;15;50;22;0;3445;-1;1;89
A357FWP7KGPP8;2I6BDPGFL6VC9ACIPY4WOOV4L4LJ4I;2JMSMEZZ2MIK61M3600Y98TXP575MV;1352405036;Windows;Chrome-22;United States;24.231.202.163;13;85;60;0;3722;1;1;90
A2M0X98KWWCAA;22KZVXX2Q45UEY3XWREI21NV1L8Q8M;2JMSMEZZ2MIK61M3600Y98TXP575MV;1352405036;Windows;Chrome-22;United States;69.88.216.102;7;91;110;91;2463;-1;-1;47
A33OKQRU00D6AH;2I64BLYHVI4486FTJ5ZDTEZV47HV11;2JMSMEZZ2MIK61M3600Y98TXP575MV;1352405037;Windows;Firefox-16;India;14.99.102.43;3;389;300;389;7594;-1;-1;15
A4CAM3DGFATWY;2DGH1XERSQV6Q5YYFTK3NVWDOHB08Z;2JMSMEZZ2MIK61M3600Y98TXP575MV;1352405037;Windows;Firefox-16;United States;75.94.22.70;18;176;108;0;2998;1;1;43
A33RPCZ6KOF549;20QN5F3Q0JG5DCZWA7PBA9FCLPLGCO;2JMSMEZZ2MIK61M3600Y98TXP575MV;1352405037;Windows;Chrome-23;United States;71.193.173.170;14;11;9;0;2293;0;1;97
AVEEXNWYXBSGM;259VKCJ011K2RIWG7VHWC18QX3N8AY;2JMSMEZZ2MIK61M3600Y98TXP575MV;1352405037;Windows;Firefox-16;United States;74.32.9.229;18;449;490;0;4519;0;1;117
A2CS8ESKDX6EBA;2PD42J1LY58BRGKVYT7FQHD4ZV85Q0;2JMSMEZZ2MIK61M3600Y98TXP575MV;1352405038;Windows;Chrome-21;India;202.153.41.133;13;50;35;0;3805;-1;1;100
A2B3YHRCG8QT00;2BG3W5XH0JPPCWFTWPGLYP78DIEKEN;2JMSMEZZ2MIK61M3600Y98TXP575MV;1352405038;Windows;Chrome-23;United States;98.111.132.148;32;344;60;0;1549;1;1;19
A1P8M5BKOTAA8I;2QGOGQSCM6IAUG5NG5LU60OTDH2HHW;2JMSMEZZ2MIK61M3600Y98TXP575MV;1352405038;Windows;Chrome-22;United States;72.192.186.131;6;293;200;293;3409;-1;-1;33
A2QLSHXNCHBRN4;2MGK2JE1M7PK4NY0UHFZGC07EWPPW9;2JMSMEZZ2MIK61M3600Y98TXP575MV;1352405039;Windows;Firefox-16;United States;24.60.89.121;26;30;25;0;2519;-1;1;211
A2SYRFPPV9WDEG;20TSNQQ7Q670PF3TAYI18TQFUUFAUG;2JMSMEZZ2MIK61M3600Y98TXP575MV;1352405039;Windows;Firefox-19;United States;66.75.77.46;25;438;600;0;11681;-1;1;193
A1SJS13KVJV1V;26UDIPDOBDDPS3W5I54DEXMEWNW0BY;2JMSMEZZ2MIK61M3600Y98TXP575MV;1352405039;Windows;Chrome-22;United States;108.85.210.104;15;120;134;0;5455;1;1;124
A3FHB2BC7J3UXZ;2SL3HVWAVKI6M1WZ0CY2599TA34GOL;2JMSMEZZ2MIK61M3600Y98TXP575MV;1352405040;Windows;Chrome-23;United States;76.115.228.67;1;379;150;379;3852;1;-1;0
A2N2KQXUPLNDWI;25CCJ011K2743LMTO7X1EN49NU7AC5;2JMSMEZZ2MIK61M3600Y98TXP575MV;1352405040;Windows;Firefox-16;United States;24.173.74.242;17;167;200;0;4024;-1;1;74
A2J2517WAWGQBW;2REVHVKCJ0114GKDHI0KWW641KX868;2JMSMEZZ2MIK61M3600Y98TXP575MV;1352405040;;;United States;71.125.243.122;20;22;34;0;;-1;1;0
A3E63RE3CI5ZH5;2JM8P9Y38TWWHWG1S99M6JTD9KZIZH;2JMSMEZZ2MIK61M3600Y98TXP575MV;1352405040;Windows;Chrome-23;United States;75.145.245.85;37;53;45;0;2337;-1;1;252
A85EHBX1CKMI2;2SY2NJQ2172ZTN3Q4MBLIVEENYVPX2;2JMSMEZZ2MIK61M3600Y98TXP575MV;1352405040;Mac;Firefox-16;United States;24.13.106.19;32;191;156;0;3010;-1;1;227
A1QSV6T2K6P8NU;2CYDG67D1X3VKTX9AZB2PE1P0MCHAL;2JMSMEZZ2MIK61M3600Y98TXP575MV;1352405041;Windows;Chrome-23;United States;75.64.167.15;14;290;300;0;2982;1;1;88
A3W18XZCM3572D;25IVJ8EBDPGF5K8LN7Q9XNDZBLO0FG;2JMSMEZZ2MIK61M3600Y98TXP575MV;1352405041;Windows;Chrome-23;United States;68.174.235.133;7;211;275;211;4027;1;-1;57
A2M0X98KWWCAA;22KZVXX2Q45UEY3XWREI21NV1L8Q8M;2JMSMEZZ2MIK61M3600Y98TXP575MV;1352405041;Windows;Chrome-22;United States;69.88.216.102;8;14;15;14;2796;-1;-1;57
ALEW8U625N446;2JJNDWIOV1S7C1GMRRL19YD21K1IXK;2JMSMEZZ2MIK61M3600Y98TXP575MV;1352405041;Windows;Firefox-14;Iceland;101.61.112.153;19;18;15;0;3987;-1;1;152
A2B3YHRCG8QT00;2BG3W5XH0JPPCWFTWPGLYP78DIEKEN;2JMSMEZZ2MIK61M3600Y98TXP575MV;1352405041;Windows;Chrome-23;United States;98.111.132.148;33;23;5;0;1470;1;1;19
A33RPCZ6KOF549;20QN5F3Q0JG5DCZWA7PBA9FCLPLGCO;2JMSMEZZ2MIK61M3600Y98TXP575MV;1352405042;Windows;Chrome-23;United States;71.193.173.170;15;346;423;0;2428;0;1;105
A3NSQ31TWXF8Z6;2P5EY5COW0LGBDGHA26LI6VQNWP5W4;2JMSMEZZ2MIK61M3600Y98TXP575MV;1352405042;Windows;Firefox-16;India;180.215.178.226;16;21;20;0;3932;0;1;107
ABOEYY9Y0PFRI;2JJJ85OZIZEH6ONYKZFQBEWSQIQAYE;2JMSMEZZ2MIK61M3600Y98TXP575MV;1352405042;Windows;Chrome-23;United States;75.64.25.219;16;184;150;0;3645;-1;1;97
A4CAM3DGFATWY;2DGH1XERSQV6Q5YYFTK3NVWDOHB08Z;2JMSMEZZ2MIK61M3600Y98TXP575MV;1352405042;Windows;Firefox-16;United States;75.94.22.70;19;473;195;0;3278;1;1;43
A357FWP7KGPP8;2I6BDPGFL6VC9ACIPY4WOOV4L4LJ4I;2JMSMEZZ2MIK61M3600Y98TXP575MV;1352405043;Windows;Chrome-22;United States;24.231.202.163;14;39;55;0;4556;1;1;96
A2QLSHXNCHBRN4;2MGK2JE1M7PK4NY0UHFZGC07EWPPW9;2JMSMEZZ2MIK61M3600Y98TXP575MV;1352405043;Windows;Firefox-16;United States;24.60.89.121;27;15;12;0;2272;-1;1;219
AVEEXNWYXBSGM;259VKCJ011K2RIWG7VHWC18QX3N8AY;2JMSMEZZ2MIK61M3600Y98TXP575MV;1352405043;Windows;Firefox-16;United States;74.32.9.229;19;116;78;0;3821;0;1;122
A1P8M5BKOTAA8I;2QGOGQSCM6IAUG5NG5LU60OTDH2HHW;2JMSMEZZ2MIK61M3600Y98TXP575MV;1352405044;Windows;Chrome-22;United States;72.192.186.131;7;93;69;93;3462;-1;-1;40
A3FHB2BC7J3UXZ;2SL3HVWAVKI6M1WZ0CY2599TA34GOL;2JMSMEZZ2MIK61M3600Y98TXP575MV;1352405044;Windows;Chrome-23;United States;76.115.228.67;2;53;75;53;2232;1;-1;6
A2SYRFPPV9WDEG;20TSNQQ7Q670PF3TAYI18TQFUUFAUG;2JMSMEZZ2MIK61M3600Y98TXP575MV;1352405045;Windows;Firefox-19;United States;66.75.77.46;26;480;750;0;3520;-1;1;197
A2J2517WAWGQBW;2REVHVKCJ0114GKDHI0KWW641KX868;2JMSMEZZ2MIK61M3600Y98TXP575MV;1352405045;;;United States;71.125.243.122;21;98;46;0;;-1;1;0
A2B3YHRCG8QT00;2BG3W5XH0JPPCWFTWPGLYP78DIEKEN;2JMSMEZZ2MIK61M3600Y98TXP575MV;1352405045;Windows;Chrome-23;United States;98.111.132.148;34;74;20;0;1586;1;1;19
A2CS8ESKDX6EBA;2PD42J1LY58BRGKVYT7FQHD4ZV85Q0;2JMSMEZZ2MIK61M3600Y98TXP575MV;1352405045;Windows;Chrome-21;India;202.153.41.133;14;174;100;0;4724;-1;1;103
A3W18XZCM3572D;25IVJ8EBDPGF5K8LN7Q9XNDZBLO0FG;2JMSMEZZ2MIK61M3600Y98TXP575MV;1352405045;Windows;Chrome-23;United States;68.174.235.133;8;32;40;32;2672;1;-1;65
A3E63RE3CI5ZH5;2JM8P9Y38TWWHWG1S99M6JTD9KZIZH;2JMSMEZZ2MIK61M3600Y98TXP575MV;1352405046;Windows;Chrome-23;United States;75.145.245.85;38;274;268;0;2787;-1;1;262
A2M0X98KWWCAA;22KZVXX2Q45UEY3XWREI21NV1L8Q8M;2JMSMEZZ2MIK61M3600Y98TXP575MV;1352405046;Windows;Chrome-22;United States;69.88.216.102;9;27;27;27;2260;-1;-1;67
A1QSV6T2K6P8NU;2CYDG67D1X3VKTX9AZB2PE1P0MCHAL;2JMSMEZZ2MIK61M3600Y98TXP575MV;1352405046;Windows;Chrome-23;United States;75.64.167.15;15;110;80;0;3186;1;1;94
A85EHBX1CKMI2;2SY2NJQ2172ZTN3Q4MBLIVEENYVPX2;2JMSMEZZ2MIK61M3600Y98TXP575MV;1352405046;Mac;Firefox-16;United States;24.13.106.19;33;35;24;0;3583;-1;1;232
A1SJS13KVJV1V;26UDIPDOBDDPS3W5I54DEXMEWNW0BY;2JMSMEZZ2MIK61M3600Y98TXP575MV;1352405046;Windows;Chrome-22;United States;108.85.210.104;16;83;90;0;5295;1;1;134
A4ZUF1F9DPHVQ;2YRFYQS1CSTM8TA0B3VII1E16KQOLZ;2JMSMEZZ2MIK61M3600Y98TXP575MV;1352405046;Linux;Firefox-10;United States;130.49.222.83;6;180;140;180;9115;1;-1;36
A33RPCZ6KOF549;20QN5F3Q0JG5DCZWA7PBA9FCLPLGCO;2JMSMEZZ2MIK61M3600Y98TXP575MV;1352405047;Windows;Chrome-23;United States;71.193.173.170;16;98;110;0;3072;0;1;114
ABOEYY9Y0PFRI;2JJJ85OZIZEH6ONYKZFQBEWSQIQAYE;2JMSMEZZ2MIK61M3600Y98TXP575MV;1352405047;Windows;Chrome-23;United States;75.64.25.219;17;225;130;0;3335;-1;1;100
A357FWP7KGPP8;2I6BDPGFL6VC9ACIPY4WOOV4L4LJ4I;2JMSMEZZ2MIK61M3600Y98TXP575MV;1352405047;Windows;Chrome-22;United States;24.231.202.163;15;99;70;0;2162;1;1;102
A2QLSHXNCHBRN4;2MGK2JE1M7PK4NY0UHFZGC07EWPPW9;2JMSMEZZ2MIK61M3600Y98TXP575MV;1352405048;Windows;Firefox-16;United States;24.60.89.121;28;459;456;0;2710;-1;1;229
A1P8M5BKOTAA8I;2QGOGQSCM6IAUG5NG5LU60OTDH2HHW;2JMSMEZZ2MIK61M3600Y98TXP575MV;1352405048;Windows;Chrome-22;United States;72.192.186.131;8;280;320;280;2538;-1;-1;49
A3NSQ31TWXF8Z6;2P5EY5COW0LGBDGHA26LI6VQNWP5W4;2JMSMEZZ2MIK61M3600Y98TXP575MV;1352405049;Windows;Firefox-16;India;180.215.178.226;17;73;20;0;4433;0;1;107
A2B3YHRCG8QT00;2BG3W5XH0JPPCWFTWPGLYP78DIEKEN;2JMSMEZZ2MIK61M3600Y98TXP575MV;1352405049;Windows;Chrome-23;United States;98.111.132.148;35;36;20;0;1570;1;1;21
A4CAM3DGFATWY;2DGH1XERSQV6Q5YYFTK3NVWDOHB08Z;2JMSMEZZ2MIK61M3600Y98TXP575MV;1352405049;Windows;Firefox-16;United States;75.94.22.70;20;378;145;0;4433;1;1;43
A2SYRFPPV9WDEG;20TSNQQ7Q670PF3TAYI18TQFUUFAUG;2JMSMEZZ2MIK61M3600Y98TXP575MV;1352405050;Windows;Firefox-19;United States;66.75.77.46;27;496;600;0;2343;-1;1;206
ALEW8U625N446;2JJNDWIOV1S7C1GMRRL19YD21K1IXK;2JMSMEZZ2MIK61M3600Y98TXP575MV;1352405050;Windows;Firefox-14;Iceland;101.61.112.153;20;307;270;0;4701;-1;1;161
A3FHB2BC7J3UXZ;2SL3HVWAVKI6M1WZ0CY2599TA34GOL;2JMSMEZZ2MIK61M3600Y98TXP575MV;1352405050;Windows;Chrome-23;United States;76.115.228.67;3;315;250;315;3539;1;-1;14
A3W18XZCM3572D;25IVJ8EBDPGF5K8LN7Q9XNDZBLO0FG;2JMSMEZZ2MIK61M3600Y98TXP575MV;1352405050;Windows;Chrome-23;United States;68.174.235.133;9;328;400;328;2429;1;-1;73
A2J2517WAWGQBW;2REVHVKCJ0114GKDHI0KWW641KX868;2JMSMEZZ2MIK61M3600Y98TXP575MV;1352405050;;;United States;71.125.243.122;22;358;45;0;;-1;1;0
AVEEXNWYXBSGM;259VKCJ011K2RIWG7VHWC18QX3N8AY;2JMSMEZZ2MIK61M3600Y98TXP575MV;1352405050;Windows;Firefox-16;United States;74.32.9.229;20;418;400;0;3825;0;1;132
A33RPCZ6KOF549;20QN5F3Q0JG5DCZWA7PBA9FCLPLGCO;2JMSMEZZ2MIK61M3600Y98TXP575MV;1352405051;Windows;Chrome-23;United States;71.193.173.170;17;126;85;0;1951;0;1;119
A3E63RE3CI5ZH5;2JM8P9Y38TWWHWG1S99M6JTD9KZIZH;2JMSMEZZ2MIK61M3600Y98TXP575MV;1352405051;Windows;Chrome-23;United States;75.145.245.85;39;28;25;0;2778;-1;1;271
A1QSV6T2K6P8NU;2CYDG67D1X3VKTX9AZB2PE1P0MCHAL;2JMSMEZZ2MIK61M3600Y98TXP575MV;1352405051;Windows;Chrome-23;United States;75.64.167.15;16;123;100;0;2861;1;1;102
A2M0X98KWWCAA;22KZVXX2Q45UEY3XWREI21NV1L8Q8M;2JMSMEZZ2MIK61M3600Y98TXP575MV;1352405051;Windows;Chrome-22;United States;69.88.216.102;10;118;150;118;2729;-1;-1;75
A2CS8ESKDX6EBA;2PD42J1LY58BRGKVYT7FQHD4ZV85Q0;2JMSMEZZ2MIK61M3600Y98TXP575MV;1352405052;Windows;Chrome-21;India;202.153.41.133;15;72;50;0;3854;-1;1;109
A357FWP7KGPP8;2I6BDPGFL6VC9ACIPY4WOOV4L4LJ4I;2JMSMEZZ2MIK61M3600Y98TXP575MV;1352405052;Windows;Chrome-22;United States;24.231.202.163;16;179;90;0;2001;1;1;103
A1SJS13KVJV1V;26UDIPDOBDDPS3W5I54DEXMEWNW0BY;2JMSMEZZ2MIK61M3600Y98TXP575MV;1352405053;Windows;Chrome-22;United States;108.85.210.104;17;491;480;0;4333;1;1;144
ABOEYY9Y0PFRI;2JJJ85OZIZEH6ONYKZFQBEWSQIQAYE;2JMSMEZZ2MIK61M3600Y98TXP575MV;1352405053;Windows;Chrome-23;United States;75.64.25.219;18;108;89;0;3120;-1;1;108
A85EHBX1CKMI2;2SY2NJQ2172ZTN3Q4MBLIVEENYVPX2;2JMSMEZZ2MIK61M3600Y98TXP575MV;1352405053;Mac;Firefox-16;United States;24.13.106.19;34;64;57;0;4577;-1;1;241
A2QLSHXNCHBRN4;2MGK2JE1M7PK4NY0UHFZGC07EWPPW9;2JMSMEZZ2MIK61M3600Y98TXP575MV;1352405053;Windows;Firefox-16;United States;24.60.89.121;29;352;389;0;2652;-1;1;239
A2B3YHRCG8QT00;2BG3W5XH0JPPCWFTWPGLYP78DIEKEN;2JMSMEZZ2MIK61M3600Y98TXP575MV;1352405054;Windows;Chrome-23;United States;98.111.132.148;36;433;80;0;2447;1;1;21
A2SYRFPPV9WDEG;20TSNQQ7Q670PF3TAYI18TQFUUFAUG;2JMSMEZZ2MIK61M3600Y98TXP575MV;1352405054;Windows;Firefox-19;United States;66.75.77.46;28;83;50;0;1915;-1;1;209
A1P8M5BKOTAA8I;2QGOGQSCM6IAUG5NG5LU60OTDH2HHW;2JMSMEZZ2MIK61M3600Y98TXP575MV;1352405054;Windows;Chrome-22;United States;72.192.186.131;9;325;280;325;3539;-1;-1;58
A3FHB2BC7J3UXZ;2SL3HVWAVKI6M1WZ0CY2599TA34GOL;2JMSMEZZ2MIK61M3600Y98TXP575MV;1352405054;Windows;Chrome-23;United States;76.115.228.67;4;17;25;17;2352;1;-1;19
A4CAM3DGFATWY;2DGH1XERSQV6Q5YYFTK3NVWDOHB08Z;2JMSMEZZ2MIK61M3600Y98TXP575MV;1352405054;Windows;Firefox-16;United States;75.94.22.70;21;306;115;0;2848;1;1;43
A33RPCZ6KOF549;20QN5F3Q0JG5DCZWA7PBA9FCLPLGCO;2JMSMEZZ2MIK61M3600Y98TXP575MV;1352405055;Windows;Chrome-23;United States;71.193.173.170;18;73;52;0;2253;0;1;125
A3NSQ31TWXF8Z6;2P5EY5COW0LGBDGHA26LI6VQNWP5W4;2JMSMEZZ2MIK61M3600Y98TXP575MV;1352405055;Windows;Firefox-16;India;180.215.178.226;18;447;500;0;3189;0;1;116
A3E63RE3CI5ZH5;2JM8P9Y38TWWHWG1S99M6JTD9KZIZH;2JMSMEZZ2MIK61M3600Y98TXP575MV;1352405055;Windows;Chrome-23;United States;75.145.245.85;40;316;250;0;2066;-1;1;279
A3W18XZCM3572D;25IVJ8EBDPGF5K8LN7Q9XNDZBLO0FG;2JMSMEZZ2MIK61M3600Y98TXP575MV;1352405055;Windows;Chrome-23;United States;68.174.235.133;10;127;220;127;3413;1;-1;76
A4ZUF1F9DPHVQ;2YRFYQS1CSTM8TA0B3VII1E16KQOLZ;2JMSMEZZ2MIK61M3600Y98TXP575MV;1352405056;Linux;Firefox-10;United States;130.49.222.83;7;264;250;264;7073;1;-1;46
ALEW8U625N446;2JJNDWIOV1S7C1GMRRL19YD21K1IXK;2JMSMEZZ2MIK61M3600Y98TXP575MV;1352405056;Windows;Firefox-14;Iceland;101.61.112.153;21;464;350;0;3367;-1;1;168
AVEEXNWYXBSGM;259VKCJ011K2RIWG7VHWC18QX3N8AY;2JMSMEZZ2MIK61M3600Y98TXP575MV;1352405056;Windows;Firefox-16;United States;74.32.9.229;21;19;15;0;3499;0;1;140
A2J2517WAWGQBW;2REVHVKCJ0114GKDHI0KWW641KX868;2JMSMEZZ2MIK61M3600Y98TXP575MV;1352405056;;;United States;71.125.243.122;23;171;43;0;;-1;1;0
A357FWP7KGPP8;2I6BDPGFL6VC9ACIPY4WOOV4L4LJ4I;2JMSMEZZ2MIK61M3600Y98TXP575MV;1352405057;Windows;Chrome-22;United States;24.231.202.163;17;490;400;0;3113;1;1;111
A2CS8ESKDX6EBA;2PD42J1LY58BRGKVYT7FQHD4ZV85Q0;2JMSMEZZ2MIK61M3600Y98TXP575MV;1352405057;Windows;Chrome-21;India;202.153.41.133;16;428;350;0;3286;-1;1;117
A2SYRFPPV9WDEG;20TSNQQ7Q670PF3TAYI18TQFUUFAUG;2JMSMEZZ2MIK61M3600Y98TXP575MV;1352405057;Windows;Firefox-19;United States;66.75.77.46;29;241;150;0;1844;-1;1;213
A2B3YHRCG8QT00;2BG3W5XH0JPPCWFTWPGLYP78DIEKEN;2JMSMEZZ2MIK61M3600Y98TXP575MV;1352405058;Windows;Chrome-23;United States;98.111.132.148;37;46;20;0;2105;1;1;21
A2M0X98KWWCAA;22KZVXX2Q45UEY3XWREI21NV1L8Q8M;2JMSMEZZ2MIK61M3600Y98TXP575MV;1352405058;Windows;Chrome-22;United States;69.88.216.102;11;390;300;0;2906;-1;1;82
A2QLSHXNCHBRN4;2MGK2JE1M7PK4NY0UHFZGC07EWPPW9;2JMSMEZZ2MIK61M3600Y98TXP575MV;1352405058;Windows;Firefox-16;United States;24.60.89.121;30;480;478;0;3227;-1;1;249
A4CAM3DGFATWY;2DGH1XERSQV6Q5YYFTK3NVWDOHB08Z;2JMSMEZZ2MIK61M3600Y98TXP575MV;1352405059;Windows;Firefox-16;United States;75.94.22.70;22;487;200;0;2142;1;1;43
A1QSV6T2K6P8NU;2CYDG67D1X3VKTX9AZB2PE1P0MCHAL;2JMSMEZZ2MIK61M3600Y98TXP575MV;1352405059;Windows;Chrome-23;United States;75.64.167.15;17;110;60;0;5525;1;1;104
A1SJS13KVJV1V;26UDIPDOBDDPS3W5I54DEXMEWNW0BY;2JMSMEZZ2MIK61M3600Y98TXP575MV;1352405059;Windows;Chrome-22;United States;108.85.210.104;18;336;220;0;3735;1;1;149
A1P8M5BKOTAA8I;2QGOGQSCM6IAUG5NG5LU60OTDH2HHW;2JMSMEZZ2MIK61M3600Y98TXP575MV;1352405059;Windows;Chrome-22;United States;72.192.186.131;10;57;55;57;2650;-1;-1;68
ABOEYY9Y0PFRI;2JJJ85OZIZEH6ONYKZFQBEWSQIQAYE;2JMSMEZZ2MIK61M3600Y98TXP575MV;1352405059;Windows;Chrome-23;United States;75.64.25.219;19;324;295;0;3677;-1;1;118
A33RPCZ6KOF549;20QN5F3Q0JG5DCZWA7PBA9FCLPLGCO;2JMSMEZZ2MIK61M3600Y98TXP575MV;1352405059;Windows;Chrome-23;United States;71.193.173.170;19;470;510;0;2530;0;1;135
A85EHBX1CKMI2;2SY2NJQ2172ZTN3Q4MBLIVEENYVPX2;2JMSMEZZ2MIK61M3600Y98TXP575MV;1352405059;Mac;Firefox-16;United States;24.13.106.19;35;358;321;0;4123;-1;1;250
A4HAK0SRN44VK;2OWBLYHVI44OCGXUSJ4NKZSE3MY2W0;2JMSMEZZ2MIK61M3600Y98TXP575MV;1352405059;Windows;Chrome-23;India;120.62.182.171;1;86;120;86;18669;0;-1;6
A2N2KQXUPLNDWI;25CCJ011K2743LMTO7X1EN49NU7AC5;2JMSMEZZ2MIK61M3600Y98TXP575MV;1352405060;Windows;Firefox-16;United States;24.173.74.242;18;202;100;0;17384;-1;1;75
A3FHB2BC7J3UXZ;2SL3HVWAVKI6M1WZ0CY2599TA34GOL;2JMSMEZZ2MIK61M3600Y98TXP575MV;1352405060;Windows;Chrome-23;United States;76.115.228.67;5;118;105;118;2499;1;-1;28
A3E63RE3CI5ZH5;2JM8P9Y38TWWHWG1S99M6JTD9KZIZH;2JMSMEZZ2MIK61M3600Y98TXP575MV;1352405060;Windows;Chrome-23;United States;75.145.245.85;41;159;250;138;2197;-1;2;281
A3W18XZCM3572D;25IVJ8EBDPGF5K8LN7Q9XNDZBLO0FG;2JMSMEZZ2MIK61M3600Y98TXP575MV;1352405061;Windows;Chrome-23;United States;68.174.235.133;11;23;35;0;2721;1;1;81
A2J2517WAWGQBW;2REVHVKCJ0114GKDHI0KWW641KX868;2JMSMEZZ2MIK61M3600Y98TXP575MV;1352405061;;;United States;71.125.243.122;24;80;78;0;;-1;1;0
A3NSQ31TWXF8Z6;2P5EY5COW0LGBDGHA26LI6VQNWP5W4;2JMSMEZZ2MIK61M3600Y98TXP575MV;1352405061;Windows;Firefox-16;India;180.215.178.226;19;36;30;0;3701;0;1;125
A2B3YHRCG8QT00;2BG3W5XH0JPPCWFTWPGLYP78DIEKEN;2JMSMEZZ2MIK61M3600Y98TXP575MV;1352405062;Windows;Chrome-23;United States;98.111.132.148;38;106;30;0;1759;1;1;21
ALEW8U625N446;2JJNDWIOV1S7C1GMRRL19YD21K1IXK;2JMSMEZZ2MIK61M3600Y98TXP575MV;1352405062;Windows;Firefox-14;Iceland;101.61.112.153;22;191;200;0;3066;-1;1;178
A2SYRFPPV9WDEG;20TSNQQ7Q670PF3TAYI18TQFUUFAUG;2JMSMEZZ2MIK61M3600Y98TXP575MV;1352405062;Windows;Firefox-19;United States;66.75.77.46;30;81;75;0;2081;-1;1;223
A2M0X98KWWCAA;22KZVXX2Q45UEY3XWREI21NV1L8Q8M;2JMSMEZZ2MIK61M3600Y98TXP575MV;1352405062;Windows;Chrome-22;United States;69.88.216.102;12;294;400;0;2143;-1;1;89
AW9ZOO8HYRHX0;2QXR98D8J3VERA51RYPCM3MFD53GWX;2JMSMEZZ2MIK61M3600Y98TXP575MV;1352405062;Windows;Chrome-23;United States;69.142.76.51;1;18;50;18;7025;1;-1;0
AVEEXNWYXBSGM;259VKCJ011K2RIWG7VHWC18QX3N8AY;2JMSMEZZ2MIK61M3600Y98TXP575MV;1352405062;Windows;Firefox-16;United States;74.32.9.229;22;41;29;0;3901;0;1;146
A357FWP7KGPP8;2I6BDPGFL6VC9ACIPY4WOOV4L4LJ4I;2JMSMEZZ2MIK61M3600Y98TXP575MV;1352405063;Windows;Chrome-22;United States;24.231.202.163;18;72;50;0;3925;1;1;117
A1QSV6T2K6P8NU;2CYDG67D1X3VKTX9AZB2PE1P0MCHAL;2JMSMEZZ2MIK61M3600Y98TXP575MV;1352405064;Windows;Chrome-23;United States;75.64.167.15;18;36;15;0;2818;1;1;104
A2QLSHXNCHBRN4;2MGK2JE1M7PK4NY0UHFZGC07EWPPW9;2JMSMEZZ2MIK61M3600Y98TXP575MV;1352405064;Windows;Firefox-16;United States;24.60.89.121;31;302;256;0;3159;-1;1;258
A1P8M5BKOTAA8I;2QGOGQSCM6IAUG5NG5LU60OTDH2HHW;2JMSMEZZ2MIK61M3600Y98TXP575MV;1352405064;Windows;Chrome-22;United States;72.192.186.131;11;178;220;0;3116;-1;1;76
A33RPCZ6KOF549;20QN5F3Q0JG5DCZWA7PBA9FCLPLGCO;2JMSMEZZ2MIK61M3600Y98TXP575MV;1352405064;Windows;Chrome-23;United States;71.193.173.170;20;428;511;0;2653;0;1;144
A1SJS13KVJV1V;26UDIPDOBDDPS3W5I54DEXMEWNW0BY;2JMSMEZZ2MIK61M3600Y98TXP575MV;1352405064;Windows;Chrome-22;United States;108.85.210.104;19;252;235;0;3606;1;1;159
A85EHBX1CKMI2;2SY2NJQ2172ZTN3Q4MBLIVEENYVPX2;2JMSMEZZ2MIK61M3600Y98TXP575MV;1352405065;Mac;Firefox-16;United States;24.13.106.19;36;73;70;0;3103;-1;1;260
A3E63RE3CI5ZH5;2JM8P9Y38TWWHWG1S99M6JTD9KZIZH;2JMSMEZZ2MIK61M3600Y98TXP575MV;1352405065;Windows;Chrome-23;United States;75.145.245.85;42;70;150;63;2600;-1;2;281
A4CAM3DGFATWY;2DGH1XERSQV6Q5YYFTK3NVWDOHB08Z;2JMSMEZZ2MIK61M3600Y98TXP575MV;1352405065;Windows;Firefox-16;United States;75.94.22.70;23;89;54;0;4041;1;1;46
ABOEYY9Y0PFRI;2JJJ85OZIZEH6ONYKZFQBEWSQIQAYE;2JMSMEZZ2MIK61M3600Y98TXP575MV;1352405065;Windows;Chrome-23;United States;75.64.25.219;20;202;103;0;4077;-1;1;119
A3FHB2BC7J3UXZ;2SL3HVWAVKI6M1WZ0CY2599TA34GOL;2JMSMEZZ2MIK61M3600Y98TXP575MV;1352405065;Windows;Chrome-23;United States;76.115.228.67;6;85;135;85;3637;1;-1;32
A2B3YHRCG8QT00;2BG3W5XH0JPPCWFTWPGLYP78DIEKEN;2JMSMEZZ2MIK61M3600Y98TXP575MV;1352405066;Windows;Chrome-23;United States;98.111.132.148;39;177;40;0;2316;1;1;21
A2SYRFPPV9WDEG;20TSNQQ7Q670PF3TAYI18TQFUUFAUG;2JMSMEZZ2MIK61M3600Y98TXP575MV;1352405066;Windows;Firefox-19;United States;66.75.77.46;31;309;150;0;1825;-1;1;224
A4ZUF1F9DPHVQ;2YRFYQS1CSTM8TA0B3VII1E16KQOLZ;2JMSMEZZ2MIK61M3600Y98TXP575MV;1352405066;Linux;Firefox-10;United States;130.49.222.83;8;307;350;307;8697;1;-1;55
AW9ZOO8HYRHX0;2QXR98D8J3VERA51RYPCM3MFD53GWX;2JMSMEZZ2MIK61M3600Y98TXP575MV;1352405066;Windows;Chrome-23;United States;69.142.76.51;2;26;50;26;2001;1;-1;2
A2J2517WAWGQBW;2REVHVKCJ0114GKDHI0KWW641KX868;2JMSMEZZ2MIK61M3600Y98TXP575MV;1352405066;;;United States;71.125.243.122;25;98;23;0;;-1;1;0
A2M0X98KWWCAA;22KZVXX2Q45UEY3XWREI21NV1L8Q8M;2JMSMEZZ2MIK61M3600Y98TXP575MV;1352405067;Windows;Chrome-22;United States;69.88.216.102;13;215;250;0;2471;-1;1;98
A3W18XZCM3572D;25IVJ8EBDPGF5K8LN7Q9XNDZBLO0FG;2JMSMEZZ2MIK61M3600Y98TXP575MV;1352405067;Windows;Chrome-23;United States;68.174.235.133;12;64;60;0;4095;1;1;91
A2CS8ESKDX6EBA;2PD42J1LY58BRGKVYT7FQHD4ZV85Q0;2JMSMEZZ2MIK61M3600Y98TXP575MV;1352405067;Windows;Chrome-21;India;202.153.41.133;17;36;35;0;7167;-1;1;127
A2N2KQXUPLNDWI;25CCJ011K2743LMTO7X1EN49NU7AC5;2JMSMEZZ2MIK61M3600Y98TXP575MV;1352405068;Windows;Firefox-16;United States;24.173.74.242;19;41;80;0;5739;-1;1;76
A357FWP7KGPP8;2I6BDPGFL6VC9ACIPY4WOOV4L4LJ4I;2JMSMEZZ2MIK61M3600Y98TXP575MV;1352405068;Windows;Chrome-22;United States;24.231.202.163;19;45;30;0;1995;1;1;122
A33RPCZ6KOF549;20QN5F3Q0JG5DCZWA7PBA9FCLPLGCO;2JMSMEZZ2MIK61M3600Y98TXP575MV;1352405068;Windows;Chrome-23;United States;71.193.173.170;21;35;22;0;2263;0;1;148
A1P8M5BKOTAA8I;2QGOGQSCM6IAUG5NG5LU60OTDH2HHW;2JMSMEZZ2MIK61M3600Y98TXP575MV;1352405069;Windows;Chrome-22;United States;72.192.186.131;12;310;500;0;2786;-1;1;80
A1QSV6T2K6P8NU;2CYDG67D1X3VKTX9AZB2PE1P0MCHAL;2JMSMEZZ2MIK61M3600Y98TXP575MV;1352405069;Windows;Chrome-23;United States;75.64.167.15;19;294;300;0;2982;1;1;114
A2QLSHXNCHBRN4;2MGK2JE1M7PK4NY0UHFZGC07EWPPW9;2JMSMEZZ2MIK61M3600Y98TXP575MV;1352405069;Windows;Firefox-16;United States;24.60.89.121;32;498;399;0;2914;-1;1;266
A3NSQ31TWXF8Z6;2P5EY5COW0LGBDGHA26LI6VQNWP5W4;2JMSMEZZ2MIK61M3600Y98TXP575MV;1352405069;Windows;Firefox-16;India;180.215.178.226;20;362;200;0;5017;0;1;127
ALEW8U625N446;2JJNDWIOV1S7C1GMRRL19YD21K1IXK;2JMSMEZZ2MIK61M3600Y98TXP575MV;1352405069;Windows;Firefox-14;Iceland;101.61.112.153;23;367;270;0;4876;-1;1;185
A4CAM3DGFATWY;2DGH1XERSQV6Q5YYFTK3NVWDOHB08Z;2JMSMEZZ2MIK61M3600Y98TXP575MV;1352405070;Windows;Firefox-16;United States;75.94.22.70;24;301;145;0;2886;1;1;47
A3E63RE3CI5ZH5;2JM8P9Y38TWWHWG1S99M6JTD9KZIZH;2JMSMEZZ2MIK61M3600Y98TXP575MV;1352405070;Windows;Chrome-23;United States;75.145.245.85;43;157;150;137;1905;-1;2;291
A2B3YHRCG8QT00;2BG3W5XH0JPPCWFTWPGLYP78DIEKEN;2JMSMEZZ2MIK61M3600Y98TXP575MV;1352405070;Windows;Chrome-23;United States;98.111.132.148;40;133;50;0;2448;1;1;21
A2SYRFPPV9WDEG;20TSNQQ7Q670PF3TAYI18TQFUUFAUG;2JMSMEZZ2MIK61M3600Y98TXP575MV;1352405071;Windows;Firefox-19;United States;66.75.77.46;32;280;250;0;2351;-1;1;233
AVEEXNWYXBSGM;259VKCJ011K2RIWG7VHWC18QX3N8AY;2JMSMEZZ2MIK61M3600Y98TXP575MV;1352405071;Windows;Firefox-16;United States;74.32.9.229;23;479;399;0;5697;0;1;155
A3FHB2BC7J3UXZ;2SL3HVWAVKI6M1WZ0CY2599TA34GOL;2JMSMEZZ2MIK61M3600Y98TXP575MV;1352405071;Windows;Chrome-23;United States;76.115.228.67;7;221;165;221;3177;1;-1;39
ABOEYY9Y0PFRI;2JJJ85OZIZEH6ONYKZFQBEWSQIQAYE;2JMSMEZZ2MIK61M3600Y98TXP575MV;1352405071;Windows;Chrome-23;United States;75.64.25.219;21;287;199;0;3198;-1;1;125
A33OKQRU00D6AH;2I64BLYHVI4486FTJ5ZDTEZV47HV11;2JMSMEZZ2MIK61M3600Y98TXP575MV;1352405071;Windows;Firefox-16;India;14.99.102.43;4;85;30;85;29594;-1;-1;15
A1SJS13KVJV1V;26UDIPDOBDDPS3W5I54DEXMEWNW0BY;2JMSMEZZ2MIK61M3600Y98TXP575MV;1352405071;Windows;Chrome-22;United States;108.85.210.104;20;344;349;0;4837;1;1;169
A85EHBX1CKMI2;2SY2NJQ2172ZTN3Q4MBLIVEENYVPX2;2JMSMEZZ2MIK61M3600Y98TXP575MV;1352405071;Mac;Firefox-16;United States;24.13.106.19;37;258;356;0;4693;-1;1;266
A3W18XZCM3572D;25IVJ8EBDPGF5K8LN7Q9XNDZBLO0FG;2JMSMEZZ2MIK61M3600Y98TXP575MV;1352405072;Windows;Chrome-23;United States;68.174.235.133;13;37;40;0;2593;1;1;101
AW9ZOO8HYRHX0;2QXR98D8J3VERA51RYPCM3MFD53GWX;2JMSMEZZ2MIK61M3600Y98TXP575MV;1352405072;Windows;Chrome-23;United States;69.142.76.51;3;211;150;211;3381;1;-1;8
A2M0X98KWWCAA;22KZVXX2Q45UEY3XWREI21NV1L8Q8M;2JMSMEZZ2MIK61M3600Y98TXP575MV;1352405072;Windows;Chrome-22;United States;69.88.216.102;14;28;35;0;2976;-1;1;106
A2J2517WAWGQBW;2REVHVKCJ0114GKDHI0KWW641KX868;2JMSMEZZ2MIK61M3600Y98TXP575MV;1352405072;;;United States;71.125.243.122;26;344;49;0;;-1;1;0
A4HAK0SRN44VK;2OWBLYHVI44OCGXUSJ4NKZSE3MY2W0;2JMSMEZZ2MIK61M3600Y98TXP575MV;1352405073;Windows;Chrome-23;India;120.62.182.171;2;95;120;95;10174;0;-1;14
A2WB6PTJR698VP;23EOFXRDS4ICLSBML8AFS11DVFNUX3;2JMSMEZZ2MIK61M3600Y98TXP575MV;1352405073;Windows;Chrome-23;Macedonia, The Former Yugoslav Republic of;95.86.9.112;19;21;150;0;56409;-1;1;77
A33RPCZ6KOF549;20QN5F3Q0JG5DCZWA7PBA9FCLPLGCO;2JMSMEZZ2MIK61M3600Y98TXP575MV;1352405073;Windows;Chrome-23;United States;71.193.173.170;22;184;104;0;3057;0;1;150
A2CS8ESKDX6EBA;2PD42J1LY58BRGKVYT7FQHD4ZV85Q0;2JMSMEZZ2MIK61M3600Y98TXP575MV;1352405073;Windows;Chrome-21;India;202.153.41.133;18;79;75;0;3566;-1;1;137
A4ZUF1F9DPHVQ;2YRFYQS1CSTM8TA0B3VII1E16KQOLZ;2JMSMEZZ2MIK61M3600Y98TXP575MV;1352405074;Linux;Firefox-10;United States;130.49.222.83;9;11;12;11;5220;1;-1;65
A2B3YHRCG8QT00;2BG3W5XH0JPPCWFTWPGLYP78DIEKEN;2JMSMEZZ2MIK61M3600Y98TXP575MV;1352405074;Windows;Chrome-23;United States;98.111.132.148;41;163;50;188;1532;1;2;21
A3NSQ31TWXF8Z6;2P5EY5COW0LGBDGHA26LI6VQNWP5W4;2JMSMEZZ2MIK61M3600Y98TXP575MV;1352405074;Windows;Firefox-16;India;180.215.178.226;21;43;30;0;2534;0;1;133
A2QLSHXNCHBRN4;2MGK2JE1M7PK4NY0UHFZGC07EWPPW9;2JMSMEZZ2MIK61M3600Y98TXP575MV;1352405074;Windows;Firefox-16;United States;24.60.89.121;33;113;204;0;3109;-1;1;268
A2SYRFPPV9WDEG;20TSNQQ7Q670PF3TAYI18TQFUUFAUG;2JMSMEZZ2MIK61M3600Y98TXP575MV;1352405074;Windows;Firefox-19;United States;66.75.77.46;33;60;50;0;1619;-1;1;242
A1P8M5BKOTAA8I;2QGOGQSCM6IAUG5NG5LU60OTDH2HHW;2JMSMEZZ2MIK61M3600Y98TXP575MV;1352405075;Windows;Chrome-22;United States;72.192.186.131;13;46;35;0;2575;-1;1;87
A2N2KQXUPLNDWI;25CCJ011K2743LMTO7X1EN49NU7AC5;2JMSMEZZ2MIK61M3600Y98TXP575MV;1352405075;Windows;Firefox-16;United States;24.173.74.242;20;131;120;0;4614;-1;1;86
A1QSV6T2K6P8NU;2CYDG67D1X3VKTX9AZB2PE1P0MCHAL;2JMSMEZZ2MIK61M3600Y98TXP575MV;1352405075;Windows;Chrome-23;United States;75.64.167.15;20;138;180;0;3526;1;1;121
ALEW8U625N446;2JJNDWIOV1S7C1GMRRL19YD21K1IXK;2JMSMEZZ2MIK61M3600Y98TXP575MV;1352405075;Windows;Firefox-14;Iceland;101.61.112.153;24;132;100;0;3126;-1;1;192
A4CAM3DGFATWY;2DGH1XERSQV6Q5YYFTK3NVWDOHB08Z;2JMSMEZZ2MIK61M3600Y98TXP575MV;1352405075;Windows;Firefox-16;United States;75.94.22.70;25;135;75;0;2881;1;1;49
A3FHB2BC7J3UXZ;2SL3HVWAVKI6M1WZ0CY2599TA34GOL;2JMSMEZZ2MIK61M3600Y98TXP575MV;1352405076;Windows;Chrome-23;United States;76.115.228.67;8;383;435;383;2478;1;-1;48
A3E63RE3CI5ZH5;2JM8P9Y38TWWHWG1S99M6JTD9KZIZH;2JMSMEZZ2MIK61M3600Y98TXP575MV;1352405076;Windows;Chrome-23;United States;75.145.245.85;44;464;475;388;3224;-1;2;299
ABOEYY9Y0PFRI;2JJJ85OZIZEH6ONYKZFQBEWSQIQAYE;2JMSMEZZ2MIK61M3600Y98TXP575MV;1352405076;Windows;Chrome-23;United States;75.64.25.219;22;130;84;0;3014;-1;1;129
A357FWP7KGPP8;2I6BDPGFL6VC9ACIPY4WOOV4L4LJ4I;2JMSMEZZ2MIK61M3600Y98TXP575MV;1352405076;Windows;Chrome-22;United States;24.231.202.163;20;47;50;0;6238;1;1;132
A2B3YHRCG8QT00;2BG3W5XH0JPPCWFTWPGLYP78DIEKEN;2JMSMEZZ2MIK61M3600Y98TXP575MV;1352405076;Windows;Chrome-23;United States;98.111.132.148;42;294;;346;242;1;2;21
A2B3YHRCG8QT00;2BG3W5XH0JPPCWFTWPGLYP78DIEKEN;2JMSMEZZ2MIK61M3600Y98TXP575MV;1352405077;Windows;Chrome-23;United States;98.111.132.148;42;294;;346;242;1;2;21
A2M0X98KWWCAA;22KZVXX2Q45UEY3XWREI21NV1L8Q8M;2JMSMEZZ2MIK61M3600Y98TXP575MV;1352405077;Windows;Chrome-22;United States;69.88.216.102;15;460;400;0;2640;-1;1;115
AVEEXNWYXBSGM;259VKCJ011K2RIWG7VHWC18QX3N8AY;2JMSMEZZ2MIK61M3600Y98TXP575MV;1352405077;Windows;Firefox-16;United States;74.32.9.229;24;78;79;0;3920;0;1;165
A33OKQRU00D6AH;2I64BLYHVI4486FTJ5ZDTEZV47HV11;2JMSMEZZ2MIK61M3600Y98TXP575MV;1352405077;Windows;Firefox-16;India;14.99.102.43;5;28;30;28;2825;-1;-1;25
A2J2517WAWGQBW;2REVHVKCJ0114GKDHI0KWW641KX868;2JMSMEZZ2MIK61M3600Y98TXP575MV;1352405077;;;United States;71.125.243.122;27;41;23;0;;-1;1;0
A1SJS13KVJV1V;26UDIPDOBDDPS3W5I54DEXMEWNW0BY;2JMSMEZZ2MIK61M3600Y98TXP575MV;1352405078;Windows;Chrome-22;United States;108.85.210.104;21;84;48;0;4136;1;1;172
AW9ZOO8HYRHX0;2QXR98D8J3VERA51RYPCM3MFD53GWX;2JMSMEZZ2MIK61M3600Y98TXP575MV;1352405078;Windows;Chrome-23;United States;69.142.76.51;4;140;170;140;3549;1;-1;16
A85EHBX1CKMI2;2SY2NJQ2172ZTN3Q4MBLIVEENYVPX2;2JMSMEZZ2MIK61M3600Y98TXP575MV;1352405078;Mac;Firefox-16;United States;24.13.106.19;38;166;169;0;4744;-1;1;276
A33RPCZ6KOF549;20QN5F3Q0JG5DCZWA7PBA9FCLPLGCO;2JMSMEZZ2MIK61M3600Y98TXP575MV;1352405078;Windows;Chrome-23;United States;71.193.173.170;23;411;269;0;2653;0;1;155
A3W18XZCM3572D;25IVJ8EBDPGF5K8LN7Q9XNDZBLO0FG;2JMSMEZZ2MIK61M3600Y98TXP575MV;1352405079;Windows;Chrome-23;United States;68.174.235.133;14;222;325;0;4617;1;1;106
A2SYRFPPV9WDEG;20TSNQQ7Q670PF3TAYI18TQFUUFAUG;2JMSMEZZ2MIK61M3600Y98TXP575MV;1352405079;Windows;Firefox-19;United States;66.75.77.46;34;142;150;0;2148;-1;1;252
A2WB6PTJR698VP;23EOFXRDS4ICLSBML8AFS11DVFNUX3;2JMSMEZZ2MIK61M3600Y98TXP575MV;1352405079;Windows;Chrome-23;Macedonia, The Former Yugoslav Republic of;95.86.9.112;20;20;15;0;2837;-1;1;84
A2CS8ESKDX6EBA;2PD42J1LY58BRGKVYT7FQHD4ZV85Q0;2JMSMEZZ2MIK61M3600Y98TXP575MV;1352405079;Windows;Chrome-21;India;202.153.41.133;19;168;150;0;3198;-1;1;146
A1QSV6T2K6P8NU;2CYDG67D1X3VKTX9AZB2PE1P0MCHAL;2JMSMEZZ2MIK61M3600Y98TXP575MV;1352405080;Windows;Chrome-23;United States;75.64.167.15;21;298;330;0;2436;1;1;131
A1P8M5BKOTAA8I;2QGOGQSCM6IAUG5NG5LU60OTDH2HHW;2JMSMEZZ2MIK61M3600Y98TXP575MV;1352405080;Windows;Chrome-22;United States;72.192.186.131;14;324;330;0;2740;-1;1;97
A2QLSHXNCHBRN4;2MGK2JE1M7PK4NY0UHFZGC07EWPPW9;2JMSMEZZ2MIK61M3600Y98TXP575MV;1352405081;Windows;Firefox-16;United States;24.60.89.121;34;37;56;0;3651;-1;1;273
A2N2KQXUPLNDWI;25CCJ011K2743LMTO7X1EN49NU7AC5;2JMSMEZZ2MIK61M3600Y98TXP575MV;1352405081;Windows;Firefox-16;United States;24.173.74.242;21;262;200;0;3243;-1;1;93
A3E63RE3CI5ZH5;2JM8P9Y38TWWHWG1S99M6JTD9KZIZH;2JMSMEZZ2MIK61M3600Y98TXP575MV;1352405081;Windows;Chrome-23;United States;75.145.245.85;45;17;25;17;2129;-1;2;304
A4CAM3DGFATWY;2DGH1XERSQV6Q5YYFTK3NVWDOHB08Z;2JMSMEZZ2MIK61M3600Y98TXP575MV;1352405081;Windows;Firefox-16;United States;75.94.22.70;26;31;24;0;2784;1;1;57
A3FHB2BC7J3UXZ;2SL3HVWAVKI6M1WZ0CY2599TA34GOL;2JMSMEZZ2MIK61M3600Y98TXP575MV;1352405081;Windows;Chrome-23;United States;76.115.228.67;9;235;235;235;3244;1;-1;58
A2B3YHRCG8QT00;2BG3W5XH0JPPCWFTWPGLYP78DIEKEN;2JMSMEZZ2MIK61M3600Y98TXP575MV;1352405081;Windows;Chrome-23;United States;98.111.132.148;43;38;30;41;2073;1;2;28
A2B3YHRCG8QT00;2BG3W5XH0JPPCWFTWPGLYP78DIEKEN;2JMSMEZZ2MIK61M3600Y98TXP575MV;1352405081;Windows;Chrome-23;United States;98.111.132.148;43;38;30;41;2073;1;2;28
A4ZUF1F9DPHVQ;2YRFYQS1CSTM8TA0B3VII1E16KQOLZ;2JMSMEZZ2MIK61M3600Y98TXP575MV;1352405081;Linux;Firefox-10;United States;130.49.222.83;10;13;13;13;5421;1;-1;75
ALEW8U625N446;2JJNDWIOV1S7C1GMRRL19YD21K1IXK;2JMSMEZZ2MIK61M3600Y98TXP575MV;1352405082;Windows;Firefox-14;Iceland;101.61.112.153;25;107;110;0;3424;-1;1;202
A2M0X98KWWCAA;22KZVXX2Q45UEY3XWREI21NV1L8Q8M;2JMSMEZZ2MIK61M3600Y98TXP575MV;1352405082;Windows;Chrome-22;United States;69.88.216.102;16;384;300;0;2264;-1;1;123
ABOEYY9Y0PFRI;2JJJ85OZIZEH6ONYKZFQBEWSQIQAYE;2JMSMEZZ2MIK61M3600Y98TXP575MV;1352405082;Windows;Chrome-23;United States;75.64.25.219;23;246;170;0;3356;-1;1;135
A33OKQRU00D6AH;2I64BLYHVI4486FTJ5ZDTEZV47HV11;2JMSMEZZ2MIK61M3600Y98TXP575MV;1352405082;Windows;Firefox-16;India;14.99.102.43;6;412;;412;1744;-1;-1;25
A357FWP7KGPP8;2I6BDPGFL6VC9ACIPY4WOOV4L4LJ4I;2JMSMEZZ2MIK61M3600Y98TXP575MV;1352405083;Windows;Chrome-22;United States;24.231.202.163;21;153;110;0;3676;1;1;138
AW9ZOO8HYRHX0;2QXR98D8J3VERA51RYPCM3MFD53GWX;2JMSMEZZ2MIK61M3600Y98TXP575MV;1352405083;Windows;Chrome-23;United States;69.142.76.51;5;122;170;122;2697;1;-1;22
A33RPCZ6KOF549;20QN5F3Q0JG5DCZWA7PBA9FCLPLGCO;2JMSMEZZ2MIK61M3600Y98TXP575MV;1352405083;Windows;Chrome-23;United States;71.193.173.170;24;363;356;0;2828;0;1;165
A3NSQ31TWXF8Z6;2P5EY5COW0LGBDGHA26LI6VQNWP5W4;2JMSMEZZ2MIK61M3600Y98TXP575MV;1352405083;Windows;Firefox-16;India;180.215.178.226;22;138;60;0;5338;0;1;133
A3W18XZCM3572D;25IVJ8EBDPGF5K8LN7Q9XNDZBLO0FG;2JMSMEZZ2MIK61M3600Y98TXP575MV;1352405083;Windows;Chrome-23;United States;68.174.235.133;15;19;25;0;2460;1;1;113
A2SYRFPPV9WDEG;20TSNQQ7Q670PF3TAYI18TQFUUFAUG;2JMSMEZZ2MIK61M3600Y98TXP575MV;1352405084;Windows;Firefox-19;United States;66.75.77.46;35;457;500;0;2466;-1;1;262
A1SJS13KVJV1V;26UDIPDOBDDPS3W5I54DEXMEWNW0BY;2JMSMEZZ2MIK61M3600Y98TXP575MV;1352405084;Windows;Chrome-22;United States;108.85.210.104;22;54;39;0;3538;1;1;178
A4HAK0SRN44VK;2OWBLYHVI44OCGXUSJ4NKZSE3MY2W0;2JMSMEZZ2MIK61M3600Y98TXP575MV;1352405084;Windows;Chrome-23;India;120.62.182.171;3;17;25;17;6883;0;-1;19
AVEEXNWYXBSGM;259VKCJ011K2RIWG7VHWC18QX3N8AY;2JMSMEZZ2MIK61M3600Y98TXP575MV;1352405084;Windows;Firefox-16;United States;74.32.9.229;25;379;359;0;4275;0;1;175
A85EHBX1CKMI2;2SY2NJQ2172ZTN3Q4MBLIVEENYVPX2;2JMSMEZZ2MIK61M3600Y98TXP575MV;1352405084;Mac;Firefox-16;United States;24.13.106.19;39;159;78;0;3585;-1;1;277
A2WB6PTJR698VP;23EOFXRDS4ICLSBML8AFS11DVFNUX3;2JMSMEZZ2MIK61M3600Y98TXP575MV;1352405085;Windows;Chrome-23;Macedonia, The Former Yugoslav Republic of;95.86.9.112;21;318;140;0;2871;-1;1;85
A1P8M5BKOTAA8I;2QGOGQSCM6IAUG5NG5LU60OTDH2HHW;2JMSMEZZ2MIK61M3600Y98TXP575MV;1352405085;Windows;Chrome-22;United States;72.192.186.131;15;153;150;0;3381;-1;1;107
A2B3YHRCG8QT00;2BG3W5XH0JPPCWFTWPGLYP78DIEKEN;2JMSMEZZ2MIK61M3600Y98TXP575MV;1352405085;Windows;Chrome-23;United States;98.111.132.148;44;431;80;515;2017;1;2;28
A3E63RE3CI5ZH5;2JM8P9Y38TWWHWG1S99M6JTD9KZIZH;2JMSMEZZ2MIK61M3600Y98TXP575MV;1352405085;Windows;Chrome-23;United States;75.145.245.85;46;14;15;14;2342;-1;2;314
A4CAM3DGFATWY;2DGH1XERSQV6Q5YYFTK3NVWDOHB08Z;2JMSMEZZ2MIK61M3600Y98TXP575MV;1352405085;Windows;Firefox-16;United States;75.94.22.70;27;43;35;0;2562;1;1;65
A2N2KQXUPLNDWI;25CCJ011K2743LMTO7X1EN49NU7AC5;2JMSMEZZ2MIK61M3600Y98TXP575MV;1352405086;Windows;Firefox-16;United States;24.173.74.242;22;428;250;0;3187;-1;1;96
A2QLSHXNCHBRN4;2MGK2JE1M7PK4NY0UHFZGC07EWPPW9;2JMSMEZZ2MIK61M3600Y98TXP575MV;1352405087;Windows;Firefox-16;United States;24.60.89.121;35;270;149;0;3949;-1;1;275
A2CS8ESKDX6EBA;2PD42J1LY58BRGKVYT7FQHD4ZV85Q0;2JMSMEZZ2MIK61M3600Y98TXP575MV;1352405087;Windows;Chrome-21;India;202.153.41.133;20;135;180;0;5048;-1;1;153
A1QSV6T2K6P8NU;2CYDG67D1X3VKTX9AZB2PE1P0MCHAL;2JMSMEZZ2MIK61M3600Y98TXP575MV;1352405088;Windows;Chrome-23;United States;75.64.167.15;22;152;122;0;5599;1;1;139
ABOEYY9Y0PFRI;2JJJ85OZIZEH6ONYKZFQBEWSQIQAYE;2JMSMEZZ2MIK61M3600Y98TXP575MV;1352405088;Windows;Chrome-23;United States;75.64.25.219;24;187;125;0;2970;-1;1;140
A33OKQRU00D6AH;2I64BLYHVI4486FTJ5ZDTEZV47HV11;2JMSMEZZ2MIK61M3600Y98TXP575MV;1352405088;Windows;Firefox-16;India;14.99.102.43;7;122;200;122;2290;-1;-1;28
A1PX84H2DRK14I;2LW9F9SSSHX1LX1WQ4WHBF8MXLHUY9;2JMSMEZZ2MIK61M3600Y98TXP575MV;1352405088;Windows;Firefox-16;United States;108.196.30.26;1;283;162;283;7470;0;-1;3
A3W18XZCM3572D;25IVJ8EBDPGF5K8LN7Q9XNDZBLO0FG;2JMSMEZZ2MIK61M3600Y98TXP575MV;1352405088;Windows;Chrome-23;United States;68.174.235.133;16;90;90;0;2460;1;1;123
AW9ZOO8HYRHX0;2QXR98D8J3VERA51RYPCM3MFD53GWX;2JMSMEZZ2MIK61M3600Y98TXP575MV;1352405088;Windows;Chrome-23;United States;69.142.76.51;6;127;120;127;3085;1;-1;32
A2SYRFPPV9WDEG;20TSNQQ7Q670PF3TAYI18TQFUUFAUG;2JMSMEZZ2MIK61M3600Y98TXP575MV;1352405088;Windows;Firefox-19;United States;66.75.77.46;36;303;600;0;2141;-1;1;263
A3FHB2BC7J3UXZ;2SL3HVWAVKI6M1WZ0CY2599TA34GOL;2JMSMEZZ2MIK61M3600Y98TXP575MV;1352405089;Windows;Chrome-23;United States;76.115.228.67;10;457;125;457;5529;1;-1;58
AVEEXNWYXBSGM;259VKCJ011K2RIWG7VHWC18QX3N8AY;2JMSMEZZ2MIK61M3600Y98TXP575MV;1352405089;Windows;Firefox-16;United States;74.32.9.229;26;77;67;0;2677;0;1;184
A1SJS13KVJV1V;26UDIPDOBDDPS3W5I54DEXMEWNW0BY;2JMSMEZZ2MIK61M3600Y98TXP575MV;1352405089;Windows;Chrome-22;United States;108.85.210.104;23;48;25;0;3008;1;1;180
A357FWP7KGPP8;2I6BDPGFL6VC9ACIPY4WOOV4L4LJ4I;2JMSMEZZ2MIK61M3600Y98TXP575MV;1352405089;Windows;Chrome-22;United States;24.231.202.163;22;139;100;0;3838;1;1;144
A2B3YHRCG8QT00;2BG3W5XH0JPPCWFTWPGLYP78DIEKEN;2JMSMEZZ2MIK61M3600Y98TXP575MV;1352405089;Windows;Chrome-23;United States;98.111.132.148;45;16;10;16;1875;1;2;32
A2M0X98KWWCAA;22KZVXX2Q45UEY3XWREI21NV1L8Q8M;2JMSMEZZ2MIK61M3600Y98TXP575MV;1352405089;Windows;Chrome-22;United States;69.88.216.102;17;135;115;0;4598;-1;1;132
A33RPCZ6KOF549;20QN5F3Q0JG5DCZWA7PBA9FCLPLGCO;2JMSMEZZ2MIK61M3600Y98TXP575MV;1352405089;Windows;Chrome-23;United States;71.193.173.170;25;125;106;0;3805;0;1;174
A4ZUF1F9DPHVQ;2YRFYQS1CSTM8TA0B3VII1E16KQOLZ;2JMSMEZZ2MIK61M3600Y98TXP575MV;1352405090;Linux;Firefox-10;United States;130.49.222.83;11;71;80;0;6130;1;1;84
A1P8M5BKOTAA8I;2QGOGQSCM6IAUG5NG5LU60OTDH2HHW;2JMSMEZZ2MIK61M3600Y98TXP575MV;1352405090;Windows;Chrome-22;United States;72.192.186.131;16;69;120;0;2570;-1;1;110
A3NSQ31TWXF8Z6;2P5EY5COW0LGBDGHA26LI6VQNWP5W4;2JMSMEZZ2MIK61M3600Y98TXP575MV;1352405090;Windows;Firefox-16;India;180.215.178.226;23;165;120;0;3688;0;1;139
A85EHBX1CKMI2;2SY2NJQ2172ZTN3Q4MBLIVEENYVPX2;2JMSMEZZ2MIK61M3600Y98TXP575MV;1352405090;Mac;Firefox-16;United States;24.13.106.19;40;170;179;0;3539;-1;1;287
ALEW8U625N446;2JJNDWIOV1S7C1GMRRL19YD21K1IXK;2JMSMEZZ2MIK61M3600Y98TXP575MV;1352405090;Windows;Firefox-14;Iceland;101.61.112.153;26;84;70;0;6147;-1;1;211
A3E63RE3CI5ZH5;2JM8P9Y38TWWHWG1S99M6JTD9KZIZH;2JMSMEZZ2MIK61M3600Y98TXP575MV;1352405091;Windows;Chrome-23;United States;75.145.245.85;47;343;245;290;2563;-1;2;323
A2QLSHXNCHBRN4;2MGK2JE1M7PK4NY0UHFZGC07EWPPW9;2JMSMEZZ2MIK61M3600Y98TXP575MV;1352405091;Windows;Firefox-16;United States;24.60.89.121;36;158;200;0;2444;-1;1;283
A2J2517WAWGQBW;2REVHVKCJ0114GKDHI0KWW641KX868;2JMSMEZZ2MIK61M3600Y98TXP575MV;1352405091;;;United States;71.125.243.122;28;49;56;0;;-1;1;0
A2WB6PTJR698VP;23EOFXRDS4ICLSBML8AFS11DVFNUX3;2JMSMEZZ2MIK61M3600Y98TXP575MV;1352405092;Windows;Chrome-23;Macedonia, The Former Yugoslav Republic of;95.86.9.112;22;243;220;0;4708;-1;1;95
A4CAM3DGFATWY;2DGH1XERSQV6Q5YYFTK3NVWDOHB08Z;2JMSMEZZ2MIK61M3600Y98TXP575MV;1352405092;Windows;Firefox-16;United States;75.94.22.70;28;481;180;0;3855;1;1;65
A1QSV6T2K6P8NU;2CYDG67D1X3VKTX9AZB2PE1P0MCHAL;2JMSMEZZ2MIK61M3600Y98TXP575MV;1352405092;Windows;Chrome-23;United States;75.64.167.15;23;423;400;0;2641;1;1;149
A3FHB2BC7J3UXZ;2SL3HVWAVKI6M1WZ0CY2599TA34GOL;2JMSMEZZ2MIK61M3600Y98TXP575MV;1352405093;Windows;Chrome-23;United States;76.115.228.67;11;50;75;0;2095;1;1;63
A1PX84H2DRK14I;2LW9F9SSSHX1LX1WQ4WHBF8MXLHUY9;2JMSMEZZ2MIK61M3600Y98TXP575MV;1352405093;Windows;Firefox-16;United States;108.196.30.26;2;22;21;22;2712;0;-1;13
A2B3YHRCG8QT00;2BG3W5XH0JPPCWFTWPGLYP78DIEKEN;2JMSMEZZ2MIK61M3600Y98TXP575MV;1352405093;Windows;Chrome-23;United States;98.111.132.148;46;237;50;277;1649;1;2;32
A2SYRFPPV9WDEG;20TSNQQ7Q670PF3TAYI18TQFUUFAUG;2JMSMEZZ2MIK61M3600Y98TXP575MV;1352405093;Windows;Firefox-19;United States;66.75.77.46;37;37;30;0;2432;-1;1;271
ABOEYY9Y0PFRI;2JJJ85OZIZEH6ONYKZFQBEWSQIQAYE;2JMSMEZZ2MIK61M3600Y98TXP575MV;1352405093;Windows;Chrome-23;United States;75.64.25.219;25;10;11;0;3416;-1;1;150
A3W18XZCM3572D;25IVJ8EBDPGF5K8LN7Q9XNDZBLO0FG;2JMSMEZZ2MIK61M3600Y98TXP575MV;1352405093;Windows;Chrome-23;United States;68.174.235.133;17;257;390;0;3083;1;1;128
AW9ZOO8HYRHX0;2QXR98D8J3VERA51RYPCM3MFD53GWX;2JMSMEZZ2MIK61M3600Y98TXP575MV;1352405093;Windows;Chrome-23;United States;69.142.76.51;7;179;140;179;3082;1;-1;40
