workerId;assignmentId;hitId;curtime;OSName;browserName;country;IP;trialn;shown;response;feedback;responseTime;fbcondition;phase;score
AWE8DF2ZY0LB2;20W5UUKQOYGN2AEWQJFG610ALRAFXP;2RCC26DG67D1HH89DVRCUK2K782E7J;1352391427;Windows;Chrome-22;India;122.164.41.191;1;25;40;25;10598;1;-1;4
AWE8DF2ZY0LB2;20W5UUKQOYGN2AEWQJFG610ALRAFXP;2RCC26DG67D1HH89DVRCUK2K782E7J;1352391434;Windows;Chrome-22;India;122.164.41.191;2;105;30;105;4169;1;-1;4
AWE8DF2ZY0LB2;20W5UUKQOYGN2AEWQJFG610ALRAFXP;2RCC26DG67D1HH89DVRCUK2K782E7J;1352391440;Windows;Chrome-22;India;122.164.41.191;3;352;180;352;3813;1;-1;5
ABSUHBDLLVK01;2TOKUDD8XMB3AHM8YMXUZO6WXAPODI;2RCC26DG67D1HH89DVRCUK2K782E7J;1352391442;Windows;Chrome-22;India;124.155.255.185;1;198;52;198;7840;0;-1;0
AWE8DF2ZY0LB2;20W5UUKQOYGN2AEWQJFG610ALRAFXP;2RCC26DG67D1HH89DVRCUK2K782E7J;1352391445;Windows;Chrome-22;India;122.164.41.191;4;313;400;313;2175;1;-1;13
AWE8DF2ZY0LB2;20W5UUKQOYGN2AEWQJFG610ALRAFXP;2RCC26DG67D1HH89DVRCUK2K782E7J;1352391451;Windows;Chrome-22;India;122.164.41.191;5;170;300;170;4389;1;-1;15
ABSUHBDLLVK01;2TOKUDD8XMB3AHM8YMXUZO6WXAPODI;2RCC26DG67D1HH89DVRCUK2K782E7J;1352391452;Windows;Chrome-22;India;124.155.255.185;2;70;65;70;5964;0;-1;10
AWE8DF2ZY0LB2;20W5UUKQOYGN2AEWQJFG610ALRAFXP;2RCC26DG67D1HH89DVRCUK2K782E7J;1352391457;Windows;Chrome-22;India;122.164.41.191;6;459;450;459;2527;1;-1;25
ABSUHBDLLVK01;2TOKUDD8XMB3AHM8YMXUZO6WXAPODI;2RCC26DG67D1HH89DVRCUK2K782E7J;1352391459;Windows;Chrome-22;India;124.155.255.185;3;138;210;138;4511;0;-1;15
AWQ2DG8RUK1ZS;299HRRLFQ0ON794QZV8OFEGU430QH1;2RCC26DG67D1HH89DVRCUK2K782E7J;1352391460;Windows;Chrome-23;United States;74.62.120.82;1;397;245;397;11056;-1;-1;4
AWE8DF2ZY0LB2;20W5UUKQOYGN2AEWQJFG610ALRAFXP;2RCC26DG67D1HH89DVRCUK2K782E7J;1352391462;Windows;Chrome-22;India;122.164.41.191;7;272;350;272;2519;1;-1;33
ABSUHBDLLVK01;2TOKUDD8XMB3AHM8YMXUZO6WXAPODI;2RCC26DG67D1HH89DVRCUK2K782E7J;1352391465;Windows;Chrome-22;India;124.155.255.185;4;378;250;378;3151;0;-1;20
AWE8DF2ZY0LB2;20W5UUKQOYGN2AEWQJFG610ALRAFXP;2RCC26DG67D1HH89DVRCUK2K782E7J;1352391467;Windows;Chrome-22;India;122.164.41.191;8;312;420;312;2331;1;-1;40
A2PEL01IY4YBLJ;20NJ8EBDPGFLQ9PYUA0RTDWLHRVG1X;2RCC26DG67D1HH89DVRCUK2K782E7J;1352391468;Windows;Chrome-22;India;122.174.101.16;1;356;0;356;23695;-1;-1;0
AWQ2DG8RUK1ZS;299HRRLFQ0ON794QZV8OFEGU430QH1;2RCC26DG67D1HH89DVRCUK2K782E7J;1352391469;Windows;Chrome-23;United States;74.62.120.82;2;161;140;161;6685;-1;-1;13
AWE8DF2ZY0LB2;20W5UUKQOYGN2AEWQJFG610ALRAFXP;2RCC26DG67D1HH89DVRCUK2K782E7J;1352391472;Windows;Chrome-22;India;122.164.41.191;9;323;380;323;2625;1;-1;49
A34ZSF2JSRXIRP;20O618N46UXFWRHEVN5TTDSQMGBPR5;2RCC26DG67D1HH89DVRCUK2K782E7J;1352391473;Windows;Firefox-16;United States;107.15.89.57;1;107;60;107;6760;1;-1;2
A25JVQ5GJRGMM1;2U1RJ85OZIZE10NJNXFOW5EZITEX9E;2RCC26DG67D1HH89DVRCUK2K782E7J;1352391473;Windows;Chrome-22;India;106.211.155.150;1;93;67;93;6205;1;-1;6
ABSUHBDLLVK01;2TOKUDD8XMB3AHM8YMXUZO6WXAPODI;2RCC26DG67D1HH89DVRCUK2K782E7J;1352391474;Windows;Chrome-22;India;124.155.255.185;5;364;160;364;5953;0;-1;21
AWQ2DG8RUK1ZS;299HRRLFQ0ON794QZV8OFEGU430QH1;2RCC26DG67D1HH89DVRCUK2K782E7J;1352391477;Windows;Chrome-23;United States;74.62.120.82;3;25;32;25;6509;-1;-1;21
AWE8DF2ZY0LB2;20W5UUKQOYGN2AEWQJFG610ALRAFXP;2RCC26DG67D1HH89DVRCUK2K782E7J;1352391478;Windows;Chrome-22;India;122.164.41.191;10;150;120;150;2795;1;-1;57
A2PEL01IY4YBLJ;20NJ8EBDPGFLQ9PYUA0RTDWLHRVG1X;2RCC26DG67D1HH89DVRCUK2K782E7J;1352391478;Windows;Chrome-22;India;122.174.101.16;2;404;400;404;7828;-1;-1;10
A34ZSF2JSRXIRP;20O618N46UXFWRHEVN5TTDSQMGBPR5;2RCC26DG67D1HH89DVRCUK2K782E7J;1352391479;Windows;Firefox-16;United States;107.15.89.57;2;377;250;377;4110;1;-1;7
ABSUHBDLLVK01;2TOKUDD8XMB3AHM8YMXUZO6WXAPODI;2RCC26DG67D1HH89DVRCUK2K782E7J;1352391481;Windows;Chrome-22;India;124.155.255.185;6;25;25;25;3683;0;-1;31
A2C7S47L8RZKZ7;2QQQ4J3NAB6BZ0SOM9PIZ1TM899ER9;2RCC26DG67D1HH89DVRCUK2K782E7J;1352391481;Windows;Chrome-22;India;101.63.185.34;1;212;0;212;17138;0;-1;0
AWE8DF2ZY0LB2;20W5UUKQOYGN2AEWQJFG610ALRAFXP;2RCC26DG67D1HH89DVRCUK2K782E7J;1352391482;Windows;Chrome-22;India;122.164.41.191;11;255;180;0;2061;1;1;63
A3MLRH6BKWKP7M;2IF46UXFCD45HQR2LOJNZKIQWPAVTA;2RCC26DG67D1HH89DVRCUK2K782E7J;1352391484;Windows;Firefox-17;India;117.206.130.118;1;132;40;132;9033;-1;-1;0
A34ZSF2JSRXIRP;20O618N46UXFWRHEVN5TTDSQMGBPR5;2RCC26DG67D1HH89DVRCUK2K782E7J;1352391485;Windows;Firefox-16;United States;107.15.89.57;3;78;45;78;3908;1;-1;10
A25JVQ5GJRGMM1;2U1RJ85OZIZE10NJNXFOW5EZITEX9E;2RCC26DG67D1HH89DVRCUK2K782E7J;1352391485;Windows;Chrome-22;India;106.211.155.150;2;43;56;43;7585;1;-1;13
A2PEL01IY4YBLJ;20NJ8EBDPGFLQ9PYUA0RTDWLHRVG1X;2RCC26DG67D1HH89DVRCUK2K782E7J;1352391486;Windows;Chrome-22;India;122.174.101.16;3;494;500;494;4735;-1;-1;20
ABSUHBDLLVK01;2TOKUDD8XMB3AHM8YMXUZO6WXAPODI;2RCC26DG67D1HH89DVRCUK2K782E7J;1352391486;Windows;Chrome-22;India;124.155.255.185;7;352;300;352;2959;0;-1;40
AWQ2DG8RUK1ZS;299HRRLFQ0ON794QZV8OFEGU430QH1;2RCC26DG67D1HH89DVRCUK2K782E7J;1352391487;Windows;Chrome-23;United States;74.62.120.82;4;270;215;270;7726;-1;-1;29
A2C7S47L8RZKZ7;2QQQ4J3NAB6BZ0SOM9PIZ1TM899ER9;2RCC26DG67D1HH89DVRCUK2K782E7J;1352391488;Windows;Chrome-22;India;101.63.185.34;2;371;200;371;4321;0;-1;2
AWE8DF2ZY0LB2;20W5UUKQOYGN2AEWQJFG610ALRAFXP;2RCC26DG67D1HH89DVRCUK2K782E7J;1352391488;Windows;Chrome-22;India;122.164.41.191;12;115;45;0;2593;1;1;63
A3MLRH6BKWKP7M;2IF46UXFCD45HQR2LOJNZKIQWPAVTA;2RCC26DG67D1HH89DVRCUK2K782E7J;1352391492;Windows;Firefox-17;India;117.206.130.118;2;456;350;456;5614;-1;-1;7
AWE8DF2ZY0LB2;20W5UUKQOYGN2AEWQJFG610ALRAFXP;2RCC26DG67D1HH89DVRCUK2K782E7J;1352391493;Windows;Chrome-22;India;122.164.41.191;13;239;120;0;2721;1;1;64
A2Q27LZW3VNDIP;2YVW5XH0JPPS2GX7C0CSV75NEI0LF9;2RCC26DG67D1HH89DVRCUK2K782E7J;1352391493;Windows;Chrome-23;India;115.241.73.198;1;43;60;43;3759;1;-1;6
A25JVQ5GJRGMM1;2U1RJ85OZIZE10NJNXFOW5EZITEX9E;2RCC26DG67D1HH89DVRCUK2K782E7J;1352391493;Windows;Chrome-22;India;106.211.155.150;3;203;110;203;4125;1;-1;15
A2PEL01IY4YBLJ;20NJ8EBDPGFLQ9PYUA0RTDWLHRVG1X;2RCC26DG67D1HH89DVRCUK2K782E7J;1352391494;Windows;Chrome-22;India;122.174.101.16;4;277;501;277;4936;-1;-1;22
A34ZSF2JSRXIRP;20O618N46UXFWRHEVN5TTDSQMGBPR5;2RCC26DG67D1HH89DVRCUK2K782E7J;1352391494;Windows;Firefox-16;United States;107.15.89.57;4;354;400;354;6178;1;-1;19
ABSUHBDLLVK01;2TOKUDD8XMB3AHM8YMXUZO6WXAPODI;2RCC26DG67D1HH89DVRCUK2K782E7J;1352391494;Windows;Chrome-22;India;124.155.255.185;8;136;100;136;4624;0;-1;47
A398FQD40SOL0R;25J14IXKO2L9MVRLULXX9YOF5BUBC1;2RCC26DG67D1HH89DVRCUK2K782E7J;1352391494;Windows;Firefox-16;United States;72.18.42.139;1;102;55;102;2836;0;-1;2
AWQ2DG8RUK1ZS;299HRRLFQ0ON794QZV8OFEGU430QH1;2RCC26DG67D1HH89DVRCUK2K782E7J;1352391496;Windows;Chrome-23;United States;74.62.120.82;5;116;130;116;6209;-1;-1;38
A2C7S47L8RZKZ7;2QQQ4J3NAB6BZ0SOM9PIZ1TM899ER9;2RCC26DG67D1HH89DVRCUK2K782E7J;1352391496;Windows;Chrome-22;India;101.63.185.34;3;137;150;137;5360;0;-1;12
A3MLRH6BKWKP7M;2IF46UXFCD45HQR2LOJNZKIQWPAVTA;2RCC26DG67D1HH89DVRCUK2K782E7J;1352391498;Windows;Firefox-17;India;117.206.130.118;3;384;550;384;3403;-1;-1;13
AWE8DF2ZY0LB2;20W5UUKQOYGN2AEWQJFG610ALRAFXP;2RCC26DG67D1HH89DVRCUK2K782E7J;1352391498;Windows;Chrome-22;India;122.164.41.191;14;328;420;0;2687;1;1;72
A398FQD40SOL0R;25J14IXKO2L9MVRLULXX9YOF5BUBC1;2RCC26DG67D1HH89DVRCUK2K782E7J;1352391499;Windows;Firefox-16;United States;72.18.42.139;2;115;100;115;2576;0;-1;11
ABSUHBDLLVK01;2TOKUDD8XMB3AHM8YMXUZO6WXAPODI;2RCC26DG67D1HH89DVRCUK2K782E7J;1352391499;Windows;Chrome-22;India;124.155.255.185;9;416;350;416;2211;0;-1;56
A34ZSF2JSRXIRP;20O618N46UXFWRHEVN5TTDSQMGBPR5;2RCC26DG67D1HH89DVRCUK2K782E7J;1352391500;Windows;Firefox-16;United States;107.15.89.57;5;420;380;420;3448;1;-1;29
A25JVQ5GJRGMM1;2U1RJ85OZIZE10NJNXFOW5EZITEX9E;2RCC26DG67D1HH89DVRCUK2K782E7J;1352391500;Windows;Chrome-22;India;106.211.155.150;4;214;300;214;3318;1;-1;21
A22SZHZTF72TRM;2OKCWY2AOO2G60RPMZ7QYCM9B64334;2RCC26DG67D1HH89DVRCUK2K782E7J;1352391501;Windows;Chrome-23;United States;209.23.243.42;1;320;320;320;4357;1;-1;10
A2Q27LZW3VNDIP;2YVW5XH0JPPS2GX7C0CSV75NEI0LF9;2RCC26DG67D1HH89DVRCUK2K782E7J;1352391502;Windows;Chrome-23;India;115.241.73.198;2;185;300;185;2958;1;-1;10
A2C7S47L8RZKZ7;2QQQ4J3NAB6BZ0SOM9PIZ1TM899ER9;2RCC26DG67D1HH89DVRCUK2K782E7J;1352391502;Windows;Chrome-22;India;101.63.185.34;4;308;170;308;2642;0;-1;14
A398FQD40SOL0R;25J14IXKO2L9MVRLULXX9YOF5BUBC1;2RCC26DG67D1HH89DVRCUK2K782E7J;1352391502;Windows;Firefox-16;United States;72.18.42.139;3;42;50;42;1491;0;-1;20
A2KLDA6MCHVV4V;249YW2GTP9RAR6I5KCX94SOI0WDTO6;2RCC26DG67D1HH89DVRCUK2K782E7J;1352391503;Windows;Firefox-5;India;122.174.108.68;1;358;150;358;4453;0;-1;0
AWQ2DG8RUK1ZS;299HRRLFQ0ON794QZV8OFEGU430QH1;2RCC26DG67D1HH89DVRCUK2K782E7J;1352391503;Windows;Chrome-23;United States;74.62.120.82;6;342;270;342;5173;-1;-1;46
AWE8DF2ZY0LB2;20W5UUKQOYGN2AEWQJFG610ALRAFXP;2RCC26DG67D1HH89DVRCUK2K782E7J;1352391503;Windows;Chrome-22;India;122.164.41.191;15;119;80;0;2692;1;1;77
ABSUHBDLLVK01;2TOKUDD8XMB3AHM8YMXUZO6WXAPODI;2RCC26DG67D1HH89DVRCUK2K782E7J;1352391506;Windows;Chrome-22;India;124.155.255.185;10;453;400;453;3771;0;-1;65
A34ZSF2JSRXIRP;20O618N46UXFWRHEVN5TTDSQMGBPR5;2RCC26DG67D1HH89DVRCUK2K782E7J;1352391506;Windows;Firefox-16;United States;107.15.89.57;6;500;510;500;4231;1;-1;39
A25JVQ5GJRGMM1;2U1RJ85OZIZE10NJNXFOW5EZITEX9E;2RCC26DG67D1HH89DVRCUK2K782E7J;1352391506;Windows;Chrome-22;India;106.211.155.150;5;296;300;296;3027;1;-1;31
A398FQD40SOL0R;25J14IXKO2L9MVRLULXX9YOF5BUBC1;2RCC26DG67D1HH89DVRCUK2K782E7J;1352391506;Windows;Firefox-16;United States;72.18.42.139;4;499;450;499;1867;0;-1;30
A22SZHZTF72TRM;2OKCWY2AOO2G60RPMZ7QYCM9B64334;2RCC26DG67D1HH89DVRCUK2K782E7J;1352391507;Windows;Chrome-23;United States;209.23.243.42;2;365;410;365;3504;1;-1;19
A2C7S47L8RZKZ7;2QQQ4J3NAB6BZ0SOM9PIZ1TM899ER9;2RCC26DG67D1HH89DVRCUK2K782E7J;1352391509;Windows;Chrome-22;India;101.63.185.34;5;494;400;494;3638;0;-1;22
A2Q27LZW3VNDIP;2YVW5XH0JPPS2GX7C0CSV75NEI0LF9;2RCC26DG67D1HH89DVRCUK2K782E7J;1352391509;Windows;Chrome-23;India;115.241.73.198;3;348;250;348;2800;1;-1;16
AWE8DF2ZY0LB2;20W5UUKQOYGN2AEWQJFG610ALRAFXP;2RCC26DG67D1HH89DVRCUK2K782E7J;1352391509;Windows;Chrome-22;India;122.164.41.191;16;272;380;0;3045;1;1;83
A2PEL01IY4YBLJ;20NJ8EBDPGFLQ9PYUA0RTDWLHRVG1X;2RCC26DG67D1HH89DVRCUK2K782E7J;1352391509;Windows;Chrome-22;India;122.174.101.16;5;28;350;28;13060;-1;-1;22
A3MLRH6BKWKP7M;2IF46UXFCD45HQR2LOJNZKIQWPAVTA;2RCC26DG67D1HH89DVRCUK2K782E7J;1352391510;Windows;Firefox-17;India;117.206.130.118;4;498;450;498;9023;-1;-1;23
A398FQD40SOL0R;25J14IXKO2L9MVRLULXX9YOF5BUBC1;2RCC26DG67D1HH89DVRCUK2K782E7J;1352391511;Windows;Firefox-16;United States;72.18.42.139;5;419;500;419;1793;0;-1;39
A1QY7CBO7FNPO8;2ZKI2KYEPLSPRJXUKHNJ9OAKJAKOUS;2RCC26DG67D1HH89DVRCUK2K782E7J;1352391511;Linux;Chrome-18;United States;172.223.132.33;1;459;250;459;4973;-1;-1;2
ACAUVIM5G3NL2;21KQV66RLPHIDHU4ULMKO62QCMWE6C;2RCC26DG67D1HH89DVRCUK2K782E7J;1352391511;Windows;Chrome-22;United States;65.189.251.248;1;136;75;136;6285;-1;-1;2
A2KLDA6MCHVV4V;249YW2GTP9RAR6I5KCX94SOI0WDTO6;2RCC26DG67D1HH89DVRCUK2K782E7J;1352391512;Windows;Firefox-5;India;122.174.108.68;2;9;8;9;6138;0;-1;9
AWQ2DG8RUK1ZS;299HRRLFQ0ON794QZV8OFEGU430QH1;2RCC26DG67D1HH89DVRCUK2K782E7J;1352391512;Windows;Chrome-23;United States;74.62.120.82;7;330;310;330;6597;-1;-1;56
ABSUHBDLLVK01;2TOKUDD8XMB3AHM8YMXUZO6WXAPODI;2RCC26DG67D1HH89DVRCUK2K782E7J;1352391512;Windows;Chrome-22;India;124.155.255.185;11;147;120;0;3116;0;1;73
A2XM6C78S9L8UG;20SJG5TYMNCWIPHIDKJSYHX4UFIIMZ;2RCC26DG67D1HH89DVRCUK2K782E7J;1352391512;Windows;Firefox-16;United States;186.151.136.158;1;357;252;357;3174;1;-1;6
ASSVZOJI3IN9R;2Y4CF0CP5KXPDW0RG8PGAPMAGUZXW4;2RCC26DG67D1HH89DVRCUK2K782E7J;1352391513;Windows;Chrome-22;United States;184.167.213.251;1;491;400;491;8161;1;-1;8
A22SZHZTF72TRM;2OKCWY2AOO2G60RPMZ7QYCM9B64334;2RCC26DG67D1HH89DVRCUK2K782E7J;1352391513;Windows;Chrome-23;United States;209.23.243.42;3;425;420;425;3136;1;-1;29
A34ZSF2JSRXIRP;20O618N46UXFWRHEVN5TTDSQMGBPR5;2RCC26DG67D1HH89DVRCUK2K782E7J;1352391513;Windows;Firefox-16;United States;107.15.89.57;7;272;300;272;3967;1;-1;49
AWE8DF2ZY0LB2;20W5UUKQOYGN2AEWQJFG610ALRAFXP;2RCC26DG67D1HH89DVRCUK2K782E7J;1352391513;Windows;Chrome-22;India;122.164.41.191;17;60;30;0;2059;1;1;84
A2FV0CMG9S8CU0;2GK8SV7WGKCCFZYCALU3SHASJ06R14;2RCC26DG67D1HH89DVRCUK2K782E7J;1352391514;Windows;Firefox-16;United States;97.80.123.111;1;143;110;143;5640;1;-1;7
A1N783M0TDDHQA;2X2B6BFMFFOYIW6ARU6DMESFTNQXK8;2RCC26DG67D1HH89DVRCUK2K782E7J;1352391514;Mac;Chrome-22;United States;76.202.250.33;1;156;50;156;6270;0;-1;0
A398FQD40SOL0R;25J14IXKO2L9MVRLULXX9YOF5BUBC1;2RCC26DG67D1HH89DVRCUK2K782E7J;1352391514;Windows;Firefox-16;United States;72.18.42.139;6;207;300;207;1788;0;-1;44
A2C7S47L8RZKZ7;2QQQ4J3NAB6BZ0SOM9PIZ1TM899ER9;2RCC26DG67D1HH89DVRCUK2K782E7J;1352391515;Windows;Chrome-22;India;101.63.185.34;6;476;550;476;3163;0;-1;31
A25JVQ5GJRGMM1;2U1RJ85OZIZE10NJNXFOW5EZITEX9E;2RCC26DG67D1HH89DVRCUK2K782E7J;1352391515;Windows;Chrome-22;India;106.211.155.150;6;22;20;22;4263;1;-1;41
A1QY7CBO7FNPO8;2ZKI2KYEPLSPRJXUKHNJ9OAKJAKOUS;2RCC26DG67D1HH89DVRCUK2K782E7J;1352391516;Linux;Chrome-18;United States;172.223.132.33;2;56;45;56;3298;-1;-1;10
AWQ2DG8RUK1ZS;299HRRLFQ0ON794QZV8OFEGU430QH1;2RCC26DG67D1HH89DVRCUK2K782E7J;1352391517;Windows;Chrome-23;United States;74.62.120.82;8;18;20;18;3219;-1;-1;66
A2KLDA6MCHVV4V;249YW2GTP9RAR6I5KCX94SOI0WDTO6;2RCC26DG67D1HH89DVRCUK2K782E7J;1352391517;Windows;Firefox-5;India;122.174.108.68;3;496;450;496;2732;0;-1;19
A1LLJH1R94P26O;2AJYNJ92NJKMKJOVH4LH4W2JML37CB;2RCC26DG67D1HH89DVRCUK2K782E7J;1352391517;Windows;Chrome-22;United States;24.182.230.183;1;346;250;346;5593;1;-1;6
A2PEL01IY4YBLJ;20NJ8EBDPGFLQ9PYUA0RTDWLHRVG1X;2RCC26DG67D1HH89DVRCUK2K782E7J;1352391517;Windows;Chrome-22;India;122.174.101.16;6;145;150;145;4959;-1;-1;32
A2Q27LZW3VNDIP;2YVW5XH0JPPS2GX7C0CSV75NEI0LF9;2RCC26DG67D1HH89DVRCUK2K782E7J;1352391518;Windows;Chrome-23;India;115.241.73.198;4;19;25;19;4331;1;-1;23
A398FQD40SOL0R;25J14IXKO2L9MVRLULXX9YOF5BUBC1;2RCC26DG67D1HH89DVRCUK2K782E7J;1352391518;Windows;Firefox-16;United States;72.18.42.139;7;433;400;433;1621;0;-1;54
A34ZSF2JSRXIRP;20O618N46UXFWRHEVN5TTDSQMGBPR5;2RCC26DG67D1HH89DVRCUK2K782E7J;1352391518;Windows;Firefox-16;United States;107.15.89.57;8;117;120;117;3386;1;-1;59
AWE8DF2ZY0LB2;20W5UUKQOYGN2AEWQJFG610ALRAFXP;2RCC26DG67D1HH89DVRCUK2K782E7J;1352391519;Windows;Chrome-22;India;122.164.41.191;18;203;80;0;2409;1;1;84
A22SZHZTF72TRM;2OKCWY2AOO2G60RPMZ7QYCM9B64334;2RCC26DG67D1HH89DVRCUK2K782E7J;1352391519;Windows;Chrome-23;United States;209.23.243.42;4;339;380;339;3417;1;-1;38
ABSUHBDLLVK01;2TOKUDD8XMB3AHM8YMXUZO6WXAPODI;2RCC26DG67D1HH89DVRCUK2K782E7J;1352391519;Windows;Chrome-22;India;124.155.255.185;12;73;85;0;4248;0;1;82
A3MLRH6BKWKP7M;2IF46UXFCD45HQR2LOJNZKIQWPAVTA;2RCC26DG67D1HH89DVRCUK2K782E7J;1352391520;Windows;Firefox-17;India;117.206.130.118;5;194;382;194;6525;-1;-1;24
A1N783M0TDDHQA;2X2B6BFMFFOYIW6ARU6DMESFTNQXK8;2RCC26DG67D1HH89DVRCUK2K782E7J;1352391520;Mac;Chrome-22;United States;76.202.250.33;2;8;12;8;3203;0;-1;5
ASSVZOJI3IN9R;2Y4CF0CP5KXPDW0RG8PGAPMAGUZXW4;2RCC26DG67D1HH89DVRCUK2K782E7J;1352391520;Windows;Chrome-22;United States;184.167.213.251;2;401;350;401;3973;1;-1;17
A2XM6C78S9L8UG;20SJG5TYMNCWIPHIDKJSYHX4UFIIMZ;2RCC26DG67D1HH89DVRCUK2K782E7J;1352391521;Windows;Firefox-16;United States;186.151.136.158;2;113;175;113;3073;1;-1;10
A2C7S47L8RZKZ7;2QQQ4J3NAB6BZ0SOM9PIZ1TM899ER9;2RCC26DG67D1HH89DVRCUK2K782E7J;1352391521;Windows;Chrome-22;India;101.63.185.34;7;281;400;281;3126;0;-1;37
A2FV0CMG9S8CU0;2GK8SV7WGKCCFZYCALU3SHASJ06R14;2RCC26DG67D1HH89DVRCUK2K782E7J;1352391521;Windows;Firefox-16;United States;97.80.123.111;2;212;175;212;5360;1;-1;16
A25JVQ5GJRGMM1;2U1RJ85OZIZE10NJNXFOW5EZITEX9E;2RCC26DG67D1HH89DVRCUK2K782E7J;1352391522;Windows;Chrome-22;India;106.211.155.150;7;149;75;149;3640;1;-1;42
ACAUVIM5G3NL2;21KQV66RLPHIDHU4ULMKO62QCMWE6C;2RCC26DG67D1HH89DVRCUK2K782E7J;1352391522;Windows;Chrome-22;United States;65.189.251.248;2;425;298;425;9165;-1;-1;8
A398FQD40SOL0R;25J14IXKO2L9MVRLULXX9YOF5BUBC1;2RCC26DG67D1HH89DVRCUK2K782E7J;1352391522;Windows;Firefox-16;United States;72.18.42.139;8;79;120;79;1754;0;-1;59
A1LLJH1R94P26O;2AJYNJ92NJKMKJOVH4LH4W2JML37CB;2RCC26DG67D1HH89DVRCUK2K782E7J;1352391522;Windows;Chrome-22;United States;24.182.230.183;2;344;300;344;3064;1;-1;15
AWE8DF2ZY0LB2;20W5UUKQOYGN2AEWQJFG610ALRAFXP;2RCC26DG67D1HH89DVRCUK2K782E7J;1352391523;Windows;Chrome-22;India;122.164.41.191;19;55;30;0;2081;1;1;86
A2KLDA6MCHVV4V;249YW2GTP9RAR6I5KCX94SOI0WDTO6;2RCC26DG67D1HH89DVRCUK2K782E7J;1352391523;Windows;Firefox-5;India;122.174.108.68;4;295;350;295;3817;0;-1;28
A1N783M0TDDHQA;2X2B6BFMFFOYIW6ARU6DMESFTNQXK8;2RCC26DG67D1HH89DVRCUK2K782E7J;1352391524;Mac;Chrome-22;United States;76.202.250.33;3;196;8;196;1309;0;-1;5
AWQ2DG8RUK1ZS;299HRRLFQ0ON794QZV8OFEGU430QH1;2RCC26DG67D1HH89DVRCUK2K782E7J;1352391524;Windows;Chrome-23;United States;74.62.120.82;9;380;370;380;4632;-1;-1;76
A1QY7CBO7FNPO8;2ZKI2KYEPLSPRJXUKHNJ9OAKJAKOUS;2RCC26DG67D1HH89DVRCUK2K782E7J;1352391524;Linux;Chrome-18;United States;172.223.132.33;3;288;359;288;5117;-1;-1;18
A34ZSF2JSRXIRP;20O618N46UXFWRHEVN5TTDSQMGBPR5;2RCC26DG67D1HH89DVRCUK2K782E7J;1352391525;Windows;Firefox-16;United States;107.15.89.57;9;364;390;364;3912;1;-1;69
ASFFW3A9FFHPN;2O4WA6X3YOCCZEPY3VOPZINLBTSOPW;2RCC26DG67D1HH89DVRCUK2K782E7J;1352391525;Windows;Chrome-22;United States;68.13.55.244;1;387;70;387;6348;0;-1;0
A2PEL01IY4YBLJ;20NJ8EBDPGFLQ9PYUA0RTDWLHRVG1X;2RCC26DG67D1HH89DVRCUK2K782E7J;1352391525;Windows;Chrome-22;India;122.174.101.16;7;293;250;293;4255;-1;-1;41
A22SZHZTF72TRM;2OKCWY2AOO2G60RPMZ7QYCM9B64334;2RCC26DG67D1HH89DVRCUK2K782E7J;1352391525;Windows;Chrome-23;United States;209.23.243.42;5;65;95;65;3975;1;-1;43
A2XM6C78S9L8UG;20SJG5TYMNCWIPHIDKJSYHX4UFIIMZ;2RCC26DG67D1HH89DVRCUK2K782E7J;1352391526;Windows;Firefox-16;United States;186.151.136.158;3;54;65;54;2323;1;-1;19
A398FQD40SOL0R;25J14IXKO2L9MVRLULXX9YOF5BUBC1;2RCC26DG67D1HH89DVRCUK2K782E7J;1352391526;Windows;Firefox-16;United States;72.18.42.139;9;463;350;463;1685;0;-1;66
ASSVZOJI3IN9R;2Y4CF0CP5KXPDW0RG8PGAPMAGUZXW4;2RCC26DG67D1HH89DVRCUK2K782E7J;1352391527;Windows;Chrome-22;United States;184.167.213.251;3;115;120;115;4304;1;-1;27
A2C7S47L8RZKZ7;2QQQ4J3NAB6BZ0SOM9PIZ1TM899ER9;2RCC26DG67D1HH89DVRCUK2K782E7J;1352391527;Windows;Chrome-22;India;101.63.185.34;8;87;90;87;2856;0;-1;47
ABSUHBDLLVK01;2TOKUDD8XMB3AHM8YMXUZO6WXAPODI;2RCC26DG67D1HH89DVRCUK2K782E7J;1352391527;Windows;Chrome-22;India;124.155.255.185;13;111;90;0;5156;0;1;90
A3MLRH6BKWKP7M;2IF46UXFCD45HQR2LOJNZKIQWPAVTA;2RCC26DG67D1HH89DVRCUK2K782E7J;1352391528;Windows;Firefox-17;India;117.206.130.118;6;420;350;420;4897;-1;-1;33
A1LLJH1R94P26O;2AJYNJ92NJKMKJOVH4LH4W2JML37CB;2RCC26DG67D1HH89DVRCUK2K782E7J;1352391528;Windows;Chrome-22;United States;24.182.230.183;3;97;100;97;3159;1;-1;25
AWE8DF2ZY0LB2;20W5UUKQOYGN2AEWQJFG610ALRAFXP;2RCC26DG67D1HH89DVRCUK2K782E7J;1352391528;Windows;Chrome-22;India;122.164.41.191;20;455;430;0;2482;1;1;96
A1N783M0TDDHQA;2X2B6BFMFFOYIW6ARU6DMESFTNQXK8;2RCC26DG67D1HH89DVRCUK2K782E7J;1352391528;Mac;Chrome-22;United States;76.202.250.33;4;145;300;145;2773;0;-1;6
A25JVQ5GJRGMM1;2U1RJ85OZIZE10NJNXFOW5EZITEX9E;2RCC26DG67D1HH89DVRCUK2K782E7J;1352391529;Windows;Chrome-22;India;106.211.155.150;8;112;90;112;2763;1;-1;50
A33DZYZ8E2LO1D;2ZV6XBAT2D5NAC0EDEH0PG5WRII151;2RCC26DG67D1HH89DVRCUK2K782E7J;1352391529;Windows;Safari-5.1;United States;99.73.182.81;1;376;112;376;5115;0;-1;0
A34ZSF2JSRXIRP;20O618N46UXFWRHEVN5TTDSQMGBPR5;2RCC26DG67D1HH89DVRCUK2K782E7J;1352391530;Windows;Firefox-16;United States;107.15.89.57;10;173;270;173;2893;1;-1;73
A2FV0CMG9S8CU0;2GK8SV7WGKCCFZYCALU3SHASJ06R14;2RCC26DG67D1HH89DVRCUK2K782E7J;1352391530;Windows;Firefox-16;United States;97.80.123.111;3;391;320;391;6499;1;-1;24
A2KLDA6MCHVV4V;249YW2GTP9RAR6I5KCX94SOI0WDTO6;2RCC26DG67D1HH89DVRCUK2K782E7J;1352391530;Windows;Firefox-5;India;122.174.108.68;5;37;35;37;3150;0;-1;38
A398FQD40SOL0R;25J14IXKO2L9MVRLULXX9YOF5BUBC1;2RCC26DG67D1HH89DVRCUK2K782E7J;1352391530;Windows;Firefox-16;United States;72.18.42.139;10;420;450;420;1752;0;-1;76
A3OZ288I9CBLWF;2W2ZHHRRLFQ08104PSSKNO9H9N5OFT;2RCC26DG67D1HH89DVRCUK2K782E7J;1352391530;Linux;Chrome-20;United States;66.233.46.185;1;495;356;495;5200;-1;-1;6
A2Q27LZW3VNDIP;2YVW5XH0JPPS2GX7C0CSV75NEI0LF9;2RCC26DG67D1HH89DVRCUK2K782E7J;1352391530;Windows;Chrome-23;India;115.241.73.198;5;120;90;120;6805;1;-1;30
ASFFW3A9FFHPN;2O4WA6X3YOCCZEPY3VOPZINLBTSOPW;2RCC26DG67D1HH89DVRCUK2K782E7J;1352391531;Windows;Chrome-22;United States;68.13.55.244;2;385;350;385;4118;0;-1;10
A22SZHZTF72TRM;2OKCWY2AOO2G60RPMZ7QYCM9B64334;2RCC26DG67D1HH89DVRCUK2K782E7J;1352391531;Windows;Chrome-23;United States;209.23.243.42;6;293;210;293;2887;1;-1;49
A2XM6C78S9L8UG;20SJG5TYMNCWIPHIDKJSYHX4UFIIMZ;2RCC26DG67D1HH89DVRCUK2K782E7J;1352391531;Windows;Firefox-16;United States;186.151.136.158;4;292;245;292;2280;1;-1;28
A2YZFD5B4LSA0R;2UO4ZMAZHHRR5T39MYEVXH1NAK3BKE;2RCC26DG67D1HH89DVRCUK2K782E7J;1352391531;Windows;Chrome-22;India;106.67.183.149;1;409;225;409;38905;0;-1;2
AWQ2DG8RUK1ZS;299HRRLFQ0ON794QZV8OFEGU430QH1;2RCC26DG67D1HH89DVRCUK2K782E7J;1352391532;Windows;Chrome-23;United States;74.62.120.82;10;123;120;123;6137;-1;-1;86
A1QY7CBO7FNPO8;2ZKI2KYEPLSPRJXUKHNJ9OAKJAKOUS;2RCC26DG67D1HH89DVRCUK2K782E7J;1352391532;Linux;Chrome-18;United States;172.223.132.33;4;411;260;411;6302;-1;-1;22
A2PEL01IY4YBLJ;20NJ8EBDPGFLQ9PYUA0RTDWLHRVG1X;2RCC26DG67D1HH89DVRCUK2K782E7J;1352391532;Windows;Chrome-22;India;122.174.101.16;8;64;50;64;4340;-1;-1;49
A1LLJH1R94P26O;2AJYNJ92NJKMKJOVH4LH4W2JML37CB;2RCC26DG67D1HH89DVRCUK2K782E7J;1352391532;Windows;Chrome-22;United States;24.182.230.183;4;401;450;401;2302;1;-1;34
A1KRPGEHVB6UQV;2UE05BMJTUHYGGT2NKIADS5ZFX0LG8;2RCC26DG67D1HH89DVRCUK2K782E7J;1352391533;Windows;Firefox-16;United States;96.239.128.168;1;484;425;484;15472;-1;-1;9
ACAUVIM5G3NL2;21KQV66RLPHIDHU4ULMKO62QCMWE6C;2RCC26DG67D1HH89DVRCUK2K782E7J;1352391533;Windows;Chrome-22;United States;65.189.251.248;3;488;698;488;8387;-1;-1;14
A2C7S47L8RZKZ7;2QQQ4J3NAB6BZ0SOM9PIZ1TM899ER9;2RCC26DG67D1HH89DVRCUK2K782E7J;1352391533;Windows;Chrome-22;India;101.63.185.34;9;455;400;455;3053;0;-1;56
AWE8DF2ZY0LB2;20W5UUKQOYGN2AEWQJFG610ALRAFXP;2RCC26DG67D1HH89DVRCUK2K782E7J;1352391533;Windows;Chrome-22;India;122.164.41.191;21;111;45;0;2564;1;1;96
AW9983V6TUGF8;2Z9IT3HVWAVK2KFWH1T1D2ZC2MAMET;2RCC26DG67D1HH89DVRCUK2K782E7J;1352391533;Windows;Firefox-16;India;116.202.166.75;1;185;150;185;12028;-1;-1;8
A398FQD40SOL0R;25J14IXKO2L9MVRLULXX9YOF5BUBC1;2RCC26DG67D1HH89DVRCUK2K782E7J;1352391534;Windows;Firefox-16;United States;72.18.42.139;11;451;500;0;1318;0;1;86
A3MLRH6BKWKP7M;2IF46UXFCD45HQR2LOJNZKIQWPAVTA;2RCC26DG67D1HH89DVRCUK2K782E7J;1352391534;Windows;Firefox-17;India;117.206.130.118;7;462;550;462;3231;-1;-1;42
ASSVZOJI3IN9R;2Y4CF0CP5KXPDW0RG8PGAPMAGUZXW4;2RCC26DG67D1HH89DVRCUK2K782E7J;1352391535;Windows;Chrome-22;United States;184.167.213.251;4;437;475;437;6427;1;-1;37
A2KLDA6MCHVV4V;249YW2GTP9RAR6I5KCX94SOI0WDTO6;2RCC26DG67D1HH89DVRCUK2K782E7J;1352391535;Windows;Firefox-5;India;122.174.108.68;6;61;60;61;2542;0;-1;48
A33DZYZ8E2LO1D;2ZV6XBAT2D5NAC0EDEH0PG5WRII151;2RCC26DG67D1HH89DVRCUK2K782E7J;1352391535;Windows;Safari-5.1;United States;99.73.182.81;2;185;180;185;3944;0;-1;10
A34ZSF2JSRXIRP;20O618N46UXFWRHEVN5TTDSQMGBPR5;2RCC26DG67D1HH89DVRCUK2K782E7J;1352391536;Windows;Firefox-16;United States;107.15.89.57;11;61;51;0;4000;1;1;82
A2XM6C78S9L8UG;20SJG5TYMNCWIPHIDKJSYHX4UFIIMZ;2RCC26DG67D1HH89DVRCUK2K782E7J;1352391536;Windows;Firefox-16;United States;186.151.136.158;5;210;225;210;2321;1;-1;38
ABSUHBDLLVK01;2TOKUDD8XMB3AHM8YMXUZO6WXAPODI;2RCC26DG67D1HH89DVRCUK2K782E7J;1352391536;Windows;Chrome-22;India;124.155.255.185;14;358;420;0;5802;0;1;99
A3OZ288I9CBLWF;2W2ZHHRRLFQ08104PSSKNO9H9N5OFT;2RCC26DG67D1HH89DVRCUK2K782E7J;1352391536;Linux;Chrome-20;United States;66.233.46.185;2;64;100;64;4120;-1;-1;10
A2FV0CMG9S8CU0;2GK8SV7WGKCCFZYCALU3SHASJ06R14;2RCC26DG67D1HH89DVRCUK2K782E7J;1352391537;Windows;Firefox-16;United States;97.80.123.111;4;60;89;60;4081;1;-1;29
A2Q27LZW3VNDIP;2YVW5XH0JPPS2GX7C0CSV75NEI0LF9;2RCC26DG67D1HH89DVRCUK2K782E7J;1352391537;Windows;Chrome-23;India;115.241.73.198;6;70;80;70;3080;1;-1;39
A22SZHZTF72TRM;2OKCWY2AOO2G60RPMZ7QYCM9B64334;2RCC26DG67D1HH89DVRCUK2K782E7J;1352391537;Windows;Chrome-23;United States;209.23.243.42;7;112;129;112;3223;1;-1;58
A1LLJH1R94P26O;2AJYNJ92NJKMKJOVH4LH4W2JML37CB;2RCC26DG67D1HH89DVRCUK2K782E7J;1352391537;Windows;Chrome-22;United States;24.182.230.183;5;134;150;134;2536;1;-1;43
A398FQD40SOL0R;25J14IXKO2L9MVRLULXX9YOF5BUBC1;2RCC26DG67D1HH89DVRCUK2K782E7J;1352391537;Windows;Firefox-16;United States;72.18.42.139;12;259;300;0;1765;0;1;95
AWQ2DG8RUK1ZS;299HRRLFQ0ON794QZV8OFEGU430QH1;2RCC26DG67D1HH89DVRCUK2K782E7J;1352391538;Windows;Chrome-23;United States;74.62.120.82;11;37;45;0;3804;-1;1;94
AWE8DF2ZY0LB2;20W5UUKQOYGN2AEWQJFG610ALRAFXP;2RCC26DG67D1HH89DVRCUK2K782E7J;1352391538;Windows;Chrome-22;India;122.164.41.191;22;493;480;0;2033;1;1;106
A1QY7CBO7FNPO8;2ZKI2KYEPLSPRJXUKHNJ9OAKJAKOUS;2RCC26DG67D1HH89DVRCUK2K782E7J;1352391538;Linux;Chrome-18;United States;172.223.132.33;5;134;65;134;3185;-1;-1;23
A25JVQ5GJRGMM1;2U1RJ85OZIZE10NJNXFOW5EZITEX9E;2RCC26DG67D1HH89DVRCUK2K782E7J;1352391538;Windows;Chrome-22;India;106.211.155.150;9;317;289;317;5341;1;-1;60
ASFFW3A9FFHPN;2O4WA6X3YOCCZEPY3VOPZINLBTSOPW;2RCC26DG67D1HH89DVRCUK2K782E7J;1352391538;Windows;Chrome-22;United States;68.13.55.244;3;23;24;23;4894;0;-1;20
A2C7S47L8RZKZ7;2QQQ4J3NAB6BZ0SOM9PIZ1TM899ER9;2RCC26DG67D1HH89DVRCUK2K782E7J;1352391538;Windows;Chrome-22;India;101.63.185.34;10;306;450;306;2548;0;-1;61
A2ZRJMJTE6ID97;262VKI62NJQ2LLF87KHHCBKO5R8LTH;2RCC26DG67D1HH89DVRCUK2K782E7J;1352391539;Windows;Firefox-12;India;14.99.76.81;1;456;126;456;9910;1;-1;0
ACAUVIM5G3NL2;21KQV66RLPHIDHU4ULMKO62QCMWE6C;2RCC26DG67D1HH89DVRCUK2K782E7J;1352391539;Windows;Chrome-22;United States;65.189.251.248;4;96;85;96;4819;-1;-1;23
A3EYWJCIO1MG9W;2BI6SVQ8H88MA8JU3Z2VII1UQTYP68;2RCC26DG67D1HH89DVRCUK2K782E7J;1352391540;Windows;Chrome-22;United States;67.41.201.244;1;483;222;483;4148;1;-1;1
A2PEL01IY4YBLJ;20NJ8EBDPGFLQ9PYUA0RTDWLHRVG1X;2RCC26DG67D1HH89DVRCUK2K782E7J;1352391540;Windows;Chrome-22;India;122.174.101.16;9;462;350;462;5005;-1;-1;56
AW9983V6TUGF8;2Z9IT3HVWAVK2KFWH1T1D2ZC2MAMET;2RCC26DG67D1HH89DVRCUK2K782E7J;1352391541;Windows;Firefox-16;India;116.202.166.75;2;247;200;247;4944;-1;-1;16
A398FQD40SOL0R;25J14IXKO2L9MVRLULXX9YOF5BUBC1;2RCC26DG67D1HH89DVRCUK2K782E7J;1352391541;Windows;Firefox-16;United States;72.18.42.139;13;270;300;0;1358;0;1;105
A33DZYZ8E2LO1D;2ZV6XBAT2D5NAC0EDEH0PG5WRII151;2RCC26DG67D1HH89DVRCUK2K782E7J;1352391541;Windows;Safari-5.1;United States;99.73.182.81;3;113;110;113;3578;0;-1;20
A3MLRH6BKWKP7M;2IF46UXFCD45HQR2LOJNZKIQWPAVTA;2RCC26DG67D1HH89DVRCUK2K782E7J;1352391541;Windows;Firefox-17;India;117.206.130.118;8;182;56;182;4047;-1;-1;42
A2KLDA6MCHVV4V;249YW2GTP9RAR6I5KCX94SOI0WDTO6;2RCC26DG67D1HH89DVRCUK2K782E7J;1352391541;Windows;Firefox-5;India;122.174.108.68;7;460;450;460;3408;0;-1;58
A2XM6C78S9L8UG;20SJG5TYMNCWIPHIDKJSYHX4UFIIMZ;2RCC26DG67D1HH89DVRCUK2K782E7J;1352391541;Windows;Firefox-16;United States;186.151.136.158;6;297;315;297;2646;1;-1;48
A1LLJH1R94P26O;2AJYNJ92NJKMKJOVH4LH4W2JML37CB;2RCC26DG67D1HH89DVRCUK2K782E7J;1352391541;Windows;Chrome-22;United States;24.182.230.183;6;183;220;183;2254;1;-1;52
ABSUHBDLLVK01;2TOKUDD8XMB3AHM8YMXUZO6WXAPODI;2RCC26DG67D1HH89DVRCUK2K782E7J;1352391542;Windows;Chrome-22;India;124.155.255.185;15;38;20;0;2614;0;1;101
A2YZFD5B4LSA0R;2UO4ZMAZHHRR5T39MYEVXH1NAK3BKE;2RCC26DG67D1HH89DVRCUK2K782E7J;1352391542;Windows;Chrome-22;India;106.67.183.149;2;279;376;279;7519;0;-1;9
AWE8DF2ZY0LB2;20W5UUKQOYGN2AEWQJFG610ALRAFXP;2RCC26DG67D1HH89DVRCUK2K782E7J;1352391542;Windows;Chrome-22;India;122.164.41.191;23;255;260;0;2580;1;1;116
A1U3PULHJJGGCC;2M8W40SPW1IN6VT7OFA3TAB94BGE1E;2RCC26DG67D1HH89DVRCUK2K782E7J;1352391542;Windows;Chrome-22;India;202.164.138.250;1;210;250;210;8066;-1;-1;9
A34ZSF2JSRXIRP;20O618N46UXFWRHEVN5TTDSQMGBPR5;2RCC26DG67D1HH89DVRCUK2K782E7J;1352391542;Windows;Firefox-16;United States;107.15.89.57;12;158;200;0;4423;1;1;90
ASSVZOJI3IN9R;2Y4CF0CP5KXPDW0RG8PGAPMAGUZXW4;2RCC26DG67D1HH89DVRCUK2K782E7J;1352391543;Windows;Chrome-22;United States;184.167.213.251;5;364;375;364;5168;1;-1;47
A2FV0CMG9S8CU0;2GK8SV7WGKCCFZYCALU3SHASJ06R14;2RCC26DG67D1HH89DVRCUK2K782E7J;1352391543;Windows;Firefox-16;United States;97.80.123.111;5;379;355;379;3882;1;-1;39
A3OZ288I9CBLWF;2W2ZHHRRLFQ08104PSSKNO9H9N5OFT;2RCC26DG67D1HH89DVRCUK2K782E7J;1352391544;Linux;Chrome-20;United States;66.233.46.185;3;386;462;386;4822;-1;-1;19
A25JVQ5GJRGMM1;2U1RJ85OZIZE10NJNXFOW5EZITEX9E;2RCC26DG67D1HH89DVRCUK2K782E7J;1352391544;Windows;Chrome-22;India;106.211.155.150;10;360;300;360;2847;1;-1;69
A22SZHZTF72TRM;2OKCWY2AOO2G60RPMZ7QYCM9B64334;2RCC26DG67D1HH89DVRCUK2K782E7J;1352391544;Windows;Chrome-23;United States;209.23.243.42;8;106;120;106;4318;1;-1;67
AMSWIR4J9XEIJ;2BG3W5XH0JPPCWFTWPGLYP78DHGEKH;2RCC26DG67D1HH89DVRCUK2K782E7J;1352391544;Mac;Chrome-20;United States;96.19.52.191;1;198;150;198;5191;-1;-1;7
A398FQD40SOL0R;25J14IXKO2L9MVRLULXX9YOF5BUBC1;2RCC26DG67D1HH89DVRCUK2K782E7J;1352391544;Windows;Firefox-16;United States;72.18.42.139;14;75;100;0;1247;0;1;112
A2Q27LZW3VNDIP;2YVW5XH0JPPS2GX7C0CSV75NEI0LF9;2RCC26DG67D1HH89DVRCUK2K782E7J;1352391545;Windows;Chrome-23;India;115.241.73.198;7;84;90;84;3755;1;-1;49
A1QY7CBO7FNPO8;2ZKI2KYEPLSPRJXUKHNJ9OAKJAKOUS;2RCC26DG67D1HH89DVRCUK2K782E7J;1352391545;Linux;Chrome-18;United States;172.223.132.33;6;193;146;193;4950;-1;-1;30
ACAUVIM5G3NL2;21KQV66RLPHIDHU4ULMKO62QCMWE6C;2RCC26DG67D1HH89DVRCUK2K782E7J;1352391545;Windows;Chrome-22;United States;65.189.251.248;5;120;185;120;3790;-1;-1;27
AWQ2DG8RUK1ZS;299HRRLFQ0ON794QZV8OFEGU430QH1;2RCC26DG67D1HH89DVRCUK2K782E7J;1352391545;Windows;Chrome-23;United States;74.62.120.82;12;174;110;0;5715;-1;1;98
A3EYWJCIO1MG9W;2BI6SVQ8H88MA8JU3Z2VII1UQTYP68;2RCC26DG67D1HH89DVRCUK2K782E7J;1352391545;Windows;Chrome-22;United States;67.41.201.244;2;120;125;120;3162;1;-1;11
A2C7S47L8RZKZ7;2QQQ4J3NAB6BZ0SOM9PIZ1TM899ER9;2RCC26DG67D1HH89DVRCUK2K782E7J;1352391545;Windows;Chrome-22;India;101.63.185.34;11;209;350;0;3269;0;1;64
A2KLDA6MCHVV4V;249YW2GTP9RAR6I5KCX94SOI0WDTO6;2RCC26DG67D1HH89DVRCUK2K782E7J;1352391546;Windows;Firefox-5;India;122.174.108.68;8;337;350;337;2023;0;-1;68
A2XM6C78S9L8UG;20SJG5TYMNCWIPHIDKJSYHX4UFIIMZ;2RCC26DG67D1HH89DVRCUK2K782E7J;1352391546;Windows;Firefox-16;United States;186.151.136.158;7;407;445;407;2431;1;-1;58
ASFFW3A9FFHPN;2O4WA6X3YOCCZEPY3VOPZINLBTSOPW;2RCC26DG67D1HH89DVRCUK2K782E7J;1352391547;Windows;Chrome-22;United States;68.13.55.244;4;471;550;471;3481;0;-1;29
A33DZYZ8E2LO1D;2ZV6XBAT2D5NAC0EDEH0PG5WRII151;2RCC26DG67D1HH89DVRCUK2K782E7J;1352391547;Windows;Safari-5.1;United States;99.73.182.81;4;451;480;451;3206;0;-1;30
A1LLJH1R94P26O;2AJYNJ92NJKMKJOVH4LH4W2JML37CB;2RCC26DG67D1HH89DVRCUK2K782E7J;1352391547;Windows;Chrome-22;United States;24.182.230.183;7;390;310;390;3361;1;-1;60
AWE8DF2ZY0LB2;20W5UUKQOYGN2AEWQJFG610ALRAFXP;2RCC26DG67D1HH89DVRCUK2K782E7J;1352391548;Windows;Chrome-22;India;122.164.41.191;24;30;25;0;2285;1;1;125
ABSUHBDLLVK01;2TOKUDD8XMB3AHM8YMXUZO6WXAPODI;2RCC26DG67D1HH89DVRCUK2K782E7J;1352391548;Windows;Chrome-22;India;124.155.255.185;16;95;55;0;3731;0;1;104
A34ZSF2JSRXIRP;20O618N46UXFWRHEVN5TTDSQMGBPR5;2RCC26DG67D1HH89DVRCUK2K782E7J;1352391548;Windows;Firefox-16;United States;107.15.89.57;13;62;75;0;3730;1;1;99
A2FV0CMG9S8CU0;2GK8SV7WGKCCFZYCALU3SHASJ06R14;2RCC26DG67D1HH89DVRCUK2K782E7J;1352391548;Windows;Firefox-16;United States;97.80.123.111;6;290;400;290;3118;1;-1;45
A2PEL01IY4YBLJ;20NJ8EBDPGFLQ9PYUA0RTDWLHRVG1X;2RCC26DG67D1HH89DVRCUK2K782E7J;1352391549;Windows;Chrome-22;India;122.174.101.16;10;328;400;328;6272;-1;-1;64
A398FQD40SOL0R;25J14IXKO2L9MVRLULXX9YOF5BUBC1;2RCC26DG67D1HH89DVRCUK2K782E7J;1352391549;Windows;Firefox-16;United States;72.18.42.139;15;85;55;0;2408;0;1;116
A1QY7CBO7FNPO8;2ZKI2KYEPLSPRJXUKHNJ9OAKJAKOUS;2RCC26DG67D1HH89DVRCUK2K782E7J;1352391550;Linux;Chrome-18;United States;172.223.132.33;7;33;10;33;2678;-1;-1;30
A22SZHZTF72TRM;2OKCWY2AOO2G60RPMZ7QYCM9B64334;2RCC26DG67D1HH89DVRCUK2K782E7J;1352391550;Windows;Chrome-23;United States;209.23.243.42;9;97;110;97;3032;1;-1;76
ASSVZOJI3IN9R;2Y4CF0CP5KXPDW0RG8PGAPMAGUZXW4;2RCC26DG67D1HH89DVRCUK2K782E7J;1352391550;Windows;Chrome-22;United States;184.167.213.251;6;381;400;381;5565;1;-1;57
AO3XB5I5QNNUI;24MU00OQKKA42W5HQDL2C80HPW5XXX;2RCC26DG67D1HH89DVRCUK2K782E7J;1352391550;Windows;Firefox-16;United States;63.228.82.54;1;110;80;110;13702;0;-1;6
A1KRPGEHVB6UQV;2UE05BMJTUHYGGT2NKIADS5ZFX0LG8;2RCC26DG67D1HH89DVRCUK2K782E7J;1352391550;Windows;Firefox-16;United States;96.239.128.168;2;61;100;61;14391;-1;-1;12
AMSWIR4J9XEIJ;2BG3W5XH0JPPCWFTWPGLYP78DHGEKH;2RCC26DG67D1HH89DVRCUK2K782E7J;1352391550;Mac;Chrome-20;United States;96.19.52.191;2;239;20;239;2607;-1;-1;7
A3MLRH6BKWKP7M;2IF46UXFCD45HQR2LOJNZKIQWPAVTA;2RCC26DG67D1HH89DVRCUK2K782E7J;1352391551;Windows;Firefox-17;India;117.206.130.118;9;247;250;247;6622;-1;-1;52
A2YZFD5B4LSA0R;2UO4ZMAZHHRR5T39MYEVXH1NAK3BKE;2RCC26DG67D1HH89DVRCUK2K782E7J;1352391551;Windows;Chrome-22;India;106.67.183.149;3;187;235;187;5710;0;-1;17
A2XM6C78S9L8UG;20SJG5TYMNCWIPHIDKJSYHX4UFIIMZ;2RCC26DG67D1HH89DVRCUK2K782E7J;1352391551;Windows;Firefox-16;United States;186.151.136.158;8;346;455;346;2429;1;-1;65
A1U3PULHJJGGCC;2M8W40SPW1IN6VT7OFA3TAB94BGE1E;2RCC26DG67D1HH89DVRCUK2K782E7J;1352391551;Windows;Chrome-22;India;202.164.138.250;2;455;280;455;6304;-1;-1;13
AW9983V6TUGF8;2Z9IT3HVWAVK2KFWH1T1D2ZC2MAMET;2RCC26DG67D1HH89DVRCUK2K782E7J;1352391551;Windows;Firefox-16;India;116.202.166.75;3;177;210;177;6591;-1;-1;25
A3EYWJCIO1MG9W;2BI6SVQ8H88MA8JU3Z2VII1UQTYP68;2RCC26DG67D1HH89DVRCUK2K782E7J;1352391552;Windows;Chrome-22;United States;67.41.201.244;3;138;200;138;3480;1;-1;16
ACAUVIM5G3NL2;21KQV66RLPHIDHU4ULMKO62QCMWE6C;2RCC26DG67D1HH89DVRCUK2K782E7J;1352391552;Windows;Chrome-22;United States;65.189.251.248;6;308;196;308;4626;-1;-1;31
A25JVQ5GJRGMM1;2U1RJ85OZIZE10NJNXFOW5EZITEX9E;2RCC26DG67D1HH89DVRCUK2K782E7J;1352391552;Windows;Chrome-22;India;106.211.155.150;11;149;200;0;4690;1;1;76
A33DZYZ8E2LO1D;2ZV6XBAT2D5NAC0EDEH0PG5WRII151;2RCC26DG67D1HH89DVRCUK2K782E7J;1352391552;Windows;Safari-5.1;United States;99.73.182.81;5;404;442;404;3302;0;-1;40
AWE8DF2ZY0LB2;20W5UUKQOYGN2AEWQJFG610ALRAFXP;2RCC26DG67D1HH89DVRCUK2K782E7J;1352391552;Windows;Chrome-22;India;122.164.41.191;25;305;280;0;2503;1;1;135
A2ZRJMJTE6ID97;262VKI62NJQ2LLF87KHHCBKO5R8LTH;2RCC26DG67D1HH89DVRCUK2K782E7J;1352391552;Windows;Firefox-12;India;14.99.76.81;2;444;500;444;9217;1;-1;9
A1LLJH1R94P26O;2AJYNJ92NJKMKJOVH4LH4W2JML37CB;2RCC26DG67D1HH89DVRCUK2K782E7J;1352391553;Windows;Chrome-22;United States;24.182.230.183;8;244;150;244;2822;1;-1;64
A3OZ288I9CBLWF;2W2ZHHRRLFQ08104PSSKNO9H9N5OFT;2RCC26DG67D1HH89DVRCUK2K782E7J;1352391553;Linux;Chrome-20;United States;66.233.46.185;4;34;45;34;6645;-1;-1;26
AWQ2DG8RUK1ZS;299HRRLFQ0ON794QZV8OFEGU430QH1;2RCC26DG67D1HH89DVRCUK2K782E7J;1352391553;Windows;Chrome-23;United States;74.62.120.82;13;292;300;0;5061;-1;1;108
A2C7S47L8RZKZ7;2QQQ4J3NAB6BZ0SOM9PIZ1TM899ER9;2RCC26DG67D1HH89DVRCUK2K782E7J;1352391553;Windows;Chrome-22;India;101.63.185.34;12;281;355;0;4179;0;1;72
A398FQD40SOL0R;25J14IXKO2L9MVRLULXX9YOF5BUBC1;2RCC26DG67D1HH89DVRCUK2K782E7J;1352391553;Windows;Firefox-16;United States;72.18.42.139;16;75;60;0;1856;0;1;124
A2Q27LZW3VNDIP;2YVW5XH0JPPS2GX7C0CSV75NEI0LF9;2RCC26DG67D1HH89DVRCUK2K782E7J;1352391553;Windows;Chrome-23;India;115.241.73.198;8;416;300;416;4377;1;-1;55
A2KLDA6MCHVV4V;249YW2GTP9RAR6I5KCX94SOI0WDTO6;2RCC26DG67D1HH89DVRCUK2K782E7J;1352391554;Windows;Firefox-5;India;122.174.108.68;9;270;250;270;5311;0;-1;78
ABSUHBDLLVK01;2TOKUDD8XMB3AHM8YMXUZO6WXAPODI;2RCC26DG67D1HH89DVRCUK2K782E7J;1352391554;Windows;Chrome-22;India;124.155.255.185;17;444;450;0;3404;0;1;114
A22SZHZTF72TRM;2OKCWY2AOO2G60RPMZ7QYCM9B64334;2RCC26DG67D1HH89DVRCUK2K782E7J;1352391556;Windows;Chrome-23;United States;209.23.243.42;10;181;140;181;2956;1;-1;84
ASSVZOJI3IN9R;2Y4CF0CP5KXPDW0RG8PGAPMAGUZXW4;2RCC26DG67D1HH89DVRCUK2K782E7J;1352391556;Windows;Chrome-22;United States;184.167.213.251;7;192;300;192;3730;1;-1;61
A3MLRH6BKWKP7M;2IF46UXFCD45HQR2LOJNZKIQWPAVTA;2RCC26DG67D1HH89DVRCUK2K782E7J;1352391556;Windows;Firefox-17;India;117.206.130.118;10;166;100;166;2637;-1;-1;55
A34ZSF2JSRXIRP;20O618N46UXFWRHEVN5TTDSQMGBPR5;2RCC26DG67D1HH89DVRCUK2K782E7J;1352391556;Windows;Firefox-16;United States;107.15.89.57;14;207;189;0;5905;1;1;109
A2XM6C78S9L8UG;20SJG5TYMNCWIPHIDKJSYHX4UFIIMZ;2RCC26DG67D1HH89DVRCUK2K782E7J;1352391557;Windows;Firefox-16;United States;186.151.136.158;9;312;315;312;2813;1;-1;75
AMSWIR4J9XEIJ;2BG3W5XH0JPPCWFTWPGLYP78DHGEKH;2RCC26DG67D1HH89DVRCUK2K782E7J;1352391557;Mac;Chrome-20;United States;96.19.52.191;3;129;150;129;4451;-1;-1;16
A398FQD40SOL0R;25J14IXKO2L9MVRLULXX9YOF5BUBC1;2RCC26DG67D1HH89DVRCUK2K782E7J;1352391557;Windows;Firefox-16;United States;72.18.42.139;17;58;60;0;1092;0;1;134
ACBII8A4LM01Y;2UG2L92HECWAQBG7MN3F6CP8DTJIHQ;2RCC26DG67D1HH89DVRCUK2K782E7J;1352391557;Windows;Firefox-16;India;117.202.17.98;1;179;107;179;16376;1;-1;3
A1LLJH1R94P26O;2AJYNJ92NJKMKJOVH4LH4W2JML37CB;2RCC26DG67D1HH89DVRCUK2K782E7J;1352391557;Windows;Chrome-22;United States;24.182.230.183;9;377;350;377;2621;1;-1;74
A3EYWJCIO1MG9W;2BI6SVQ8H88MA8JU3Z2VII1UQTYP68;2RCC26DG67D1HH89DVRCUK2K782E7J;1352391557;Windows;Chrome-22;United States;67.41.201.244;4;282;222;282;3548;1;-1;24
A25JVQ5GJRGMM1;2U1RJ85OZIZE10NJNXFOW5EZITEX9E;2RCC26DG67D1HH89DVRCUK2K782E7J;1352391558;Windows;Chrome-22;India;106.211.155.150;12;385;350;0;2793;1;1;86
A1QY7CBO7FNPO8;2ZKI2KYEPLSPRJXUKHNJ9OAKJAKOUS;2RCC26DG67D1HH89DVRCUK2K782E7J;1352391558;Linux;Chrome-18;United States;172.223.132.33;8;319;189;319;5927;-1;-1;33
AWE8DF2ZY0LB2;20W5UUKQOYGN2AEWQJFG610ALRAFXP;2RCC26DG67D1HH89DVRCUK2K782E7J;1352391558;Windows;Chrome-22;India;122.164.41.191;26;335;400;0;3174;1;1;144
AO3XB5I5QNNUI;24MU00OQKKA42W5HQDL2C80HPW5XXX;2RCC26DG67D1HH89DVRCUK2K782E7J;1352391558;Windows;Firefox-16;United States;63.228.82.54;2;106;110;106;5541;0;-1;16
A1KRPGEHVB6UQV;2UE05BMJTUHYGGT2NKIADS5ZFX0LG8;2RCC26DG67D1HH89DVRCUK2K782E7J;1352391559;Windows;Firefox-16;United States;96.239.128.168;3;100;135;100;6084;-1;-1;19
A33DZYZ8E2LO1D;2ZV6XBAT2D5NAC0EDEH0PG5WRII151;2RCC26DG67D1HH89DVRCUK2K782E7J;1352391559;Windows;Safari-5.1;United States;99.73.182.81;6;394;420;394;4775;0;-1;50
A2FV0CMG9S8CU0;2GK8SV7WGKCCFZYCALU3SHASJ06R14;2RCC26DG67D1HH89DVRCUK2K782E7J;1352391559;Windows;Firefox-16;United States;97.80.123.111;7;266;200;266;8332;1;-1;52
A2C7S47L8RZKZ7;2QQQ4J3NAB6BZ0SOM9PIZ1TM899ER9;2RCC26DG67D1HH89DVRCUK2K782E7J;1352391559;Windows;Chrome-22;India;101.63.185.34;13;67;90;0;2640;0;1;79
A2YZFD5B4LSA0R;2UO4ZMAZHHRR5T39MYEVXH1NAK3BKE;2RCC26DG67D1HH89DVRCUK2K782E7J;1352391559;Windows;Chrome-22;India;106.67.183.149;4;243;199;243;4056;0;-1;25
A1U3PULHJJGGCC;2M8W40SPW1IN6VT7OFA3TAB94BGE1E;2RCC26DG67D1HH89DVRCUK2K782E7J;1352391559;Windows;Chrome-22;India;202.164.138.250;3;424;500;424;5717;-1;-1;22
A398FQD40SOL0R;25J14IXKO2L9MVRLULXX9YOF5BUBC1;2RCC26DG67D1HH89DVRCUK2K782E7J;1352391560;Windows;Firefox-16;United States;72.18.42.139;18;49;60;0;1085;0;1;142
A2PEL01IY4YBLJ;20NJ8EBDPGFLQ9PYUA0RTDWLHRVG1X;2RCC26DG67D1HH89DVRCUK2K782E7J;1352391561;Windows;Chrome-22;India;122.174.101.16;11;164;267;0;8597;-1;1;68
A3K9PGO5F3KCR8;2CCYEPLSP75K50J5HEFANQETOFKXR1;2RCC26DG67D1HH89DVRCUK2K782E7J;1352391561;Linux;Firefox-7;India;117.213.59.50;1;299;100;299;7052;0;-1;0
A2KLDA6MCHVV4V;249YW2GTP9RAR6I5KCX94SOI0WDTO6;2RCC26DG67D1HH89DVRCUK2K782E7J;1352391561;Windows;Firefox-5;India;122.174.108.68;10;191;25;191;4116;0;-1;78
ABSUHBDLLVK01;2TOKUDD8XMB3AHM8YMXUZO6WXAPODI;2RCC26DG67D1HH89DVRCUK2K782E7J;1352391562;Windows;Chrome-22;India;124.155.255.185;18;152;150;0;4373;0;1;124
AMSWIR4J9XEIJ;2BG3W5XH0JPPCWFTWPGLYP78DHGEKH;2RCC26DG67D1HH89DVRCUK2K782E7J;1352391562;Mac;Chrome-20;United States;96.19.52.191;4;164;150;164;2232;-1;-1;26
A2XM6C78S9L8UG;20SJG5TYMNCWIPHIDKJSYHX4UFIIMZ;2RCC26DG67D1HH89DVRCUK2K782E7J;1352391562;Windows;Firefox-16;United States;186.151.136.158;10;468;565;468;2673;1;-1;84
A1LLJH1R94P26O;2AJYNJ92NJKMKJOVH4LH4W2JML37CB;2RCC26DG67D1HH89DVRCUK2K782E7J;1352391562;Windows;Chrome-22;United States;24.182.230.183;10;145;110;145;2290;1;-1;81
ACAUVIM5G3NL2;21KQV66RLPHIDHU4ULMKO62QCMWE6C;2RCC26DG67D1HH89DVRCUK2K782E7J;1352391562;Windows;Chrome-22;United States;65.189.251.248;7;96;103;96;7642;-1;-1;41
AW9983V6TUGF8;2Z9IT3HVWAVK2KFWH1T1D2ZC2MAMET;2RCC26DG67D1HH89DVRCUK2K782E7J;1352391562;Windows;Firefox-16;India;116.202.166.75;4;272;220;272;7863;-1;-1;33
A3MLRH6BKWKP7M;2IF46UXFCD45HQR2LOJNZKIQWPAVTA;2RCC26DG67D1HH89DVRCUK2K782E7J;1352391562;Windows;Firefox-17;India;117.206.130.118;11;396;450;0;3001;-1;1;64
A3OZ288I9CBLWF;2W2ZHHRRLFQ08104PSSKNO9H9N5OFT;2RCC26DG67D1HH89DVRCUK2K782E7J;1352391562;Linux;Chrome-20;United States;66.233.46.185;5;296;368;296;7329;-1;-1;34
ASSVZOJI3IN9R;2Y4CF0CP5KXPDW0RG8PGAPMAGUZXW4;2RCC26DG67D1HH89DVRCUK2K782E7J;1352391563;Windows;Chrome-22;United States;184.167.213.251;8;67;80;67;3813;1;-1;70
A2Q27LZW3VNDIP;2YVW5XH0JPPS2GX7C0CSV75NEI0LF9;2RCC26DG67D1HH89DVRCUK2K782E7J;1352391563;Windows;Chrome-23;India;115.241.73.198;9;304;280;304;4520;1;-1;65
A2ZRJMJTE6ID97;262VKI62NJQ2LLF87KHHCBKO5R8LTH;2RCC26DG67D1HH89DVRCUK2K782E7J;1352391563;Windows;Firefox-12;India;14.99.76.81;3;100;58;100;5474;1;-1;12
A3EYWJCIO1MG9W;2BI6SVQ8H88MA8JU3Z2VII1UQTYP68;2RCC26DG67D1HH89DVRCUK2K782E7J;1352391563;Windows;Chrome-22;United States;67.41.201.244;5;294;250;294;3002;1;-1;33
A22SZHZTF72TRM;2OKCWY2AOO2G60RPMZ7QYCM9B64334;2RCC26DG67D1HH89DVRCUK2K782E7J;1352391563;Windows;Chrome-23;United States;209.23.243.42;11;31;60;0;2897;1;1;85
AWE8DF2ZY0LB2;20W5UUKQOYGN2AEWQJFG610ALRAFXP;2RCC26DG67D1HH89DVRCUK2K782E7J;1352391563;Windows;Chrome-22;India;122.164.41.191;27;148;60;0;2535;1;1;144
A34ZSF2JSRXIRP;20O618N46UXFWRHEVN5TTDSQMGBPR5;2RCC26DG67D1HH89DVRCUK2K782E7J;1352391563;Windows;Firefox-16;United States;107.15.89.57;15;456;390;0;4441;1;1;118
A398FQD40SOL0R;25J14IXKO2L9MVRLULXX9YOF5BUBC1;2RCC26DG67D1HH89DVRCUK2K782E7J;1352391564;Windows;Firefox-16;United States;72.18.42.139;19;473;500;0;1549;0;1;152
A25JVQ5GJRGMM1;2U1RJ85OZIZE10NJNXFOW5EZITEX9E;2RCC26DG67D1HH89DVRCUK2K782E7J;1352391564;Windows;Chrome-22;India;106.211.155.150;13;143;200;0;3812;1;1;92
AO3XB5I5QNNUI;24MU00OQKKA42W5HQDL2C80HPW5XXX;2RCC26DG67D1HH89DVRCUK2K782E7J;1352391565;Windows;Firefox-16;United States;63.228.82.54;3;408;250;408;4146;0;-1;20
A1QY7CBO7FNPO8;2ZKI2KYEPLSPRJXUKHNJ9OAKJAKOUS;2RCC26DG67D1HH89DVRCUK2K782E7J;1352391565;Linux;Chrome-18;United States;172.223.132.33;9;282;240;282;4710;-1;-1;42
A2FV0CMG9S8CU0;2GK8SV7WGKCCFZYCALU3SHASJ06R14;2RCC26DG67D1HH89DVRCUK2K782E7J;1352391565;Windows;Firefox-16;United States;97.80.123.111;8;117;90;117;3605;1;-1;59
AMSWIR4J9XEIJ;2BG3W5XH0JPPCWFTWPGLYP78DHGEKH;2RCC26DG67D1HH89DVRCUK2K782E7J;1352391565;Mac;Chrome-20;United States;96.19.52.191;5;334;300;334;1736;-1;-1;36
A33DZYZ8E2LO1D;2ZV6XBAT2D5NAC0EDEH0PG5WRII151;2RCC26DG67D1HH89DVRCUK2K782E7J;1352391566;Windows;Safari-5.1;United States;99.73.182.81;7;449;385;449;4292;0;-1;59
AWQ2DG8RUK1ZS;299HRRLFQ0ON794QZV8OFEGU430QH1;2RCC26DG67D1HH89DVRCUK2K782E7J;1352391566;Windows;Chrome-23;United States;74.62.120.82;14;259;180;0;8009;-1;1;114
A2XM6C78S9L8UG;20SJG5TYMNCWIPHIDKJSYHX4UFIIMZ;2RCC26DG67D1HH89DVRCUK2K782E7J;1352391567;Windows;Firefox-16;United States;186.151.136.158;11;241;210;0;2416;1;1;93
ABSUHBDLLVK01;2TOKUDD8XMB3AHM8YMXUZO6WXAPODI;2RCC26DG67D1HH89DVRCUK2K782E7J;1352391567;Windows;Chrome-22;India;124.155.255.185;19;187;160;0;2501;0;1;133
A1LLJH1R94P26O;2AJYNJ92NJKMKJOVH4LH4W2JML37CB;2RCC26DG67D1HH89DVRCUK2K782E7J;1352391567;Windows;Chrome-22;United States;24.182.230.183;11;431;275;0;2752;1;1;85
A1KRPGEHVB6UQV;2UE05BMJTUHYGGT2NKIADS5ZFX0LG8;2RCC26DG67D1HH89DVRCUK2K782E7J;1352391567;Windows;Firefox-16;United States;96.239.128.168;4;500;280;500;5748;-1;-1;21
A2C7S47L8RZKZ7;2QQQ4J3NAB6BZ0SOM9PIZ1TM899ER9;2RCC26DG67D1HH89DVRCUK2K782E7J;1352391567;Windows;Chrome-22;India;101.63.185.34;14;236;200;0;4818;0;1;88
A2KLDA6MCHVV4V;249YW2GTP9RAR6I5KCX94SOI0WDTO6;2RCC26DG67D1HH89DVRCUK2K782E7J;1352391567;Windows;Firefox-5;India;122.174.108.68;11;43;60;0;3666;0;1;84
A3K9PGO5F3KCR8;2CCYEPLSP75K50J5HEFANQETOFKXR1;2RCC26DG67D1HH89DVRCUK2K782E7J;1352391567;Linux;Firefox-7;India;117.213.59.50;2;24;30;24;3871;0;-1;8
A3EYWJCIO1MG9W;2BI6SVQ8H88MA8JU3Z2VII1UQTYP68;2RCC26DG67D1HH89DVRCUK2K782E7J;1352391568;Windows;Chrome-22;United States;67.41.201.244;6;149;123;149;2770;1;-1;42
A398FQD40SOL0R;25J14IXKO2L9MVRLULXX9YOF5BUBC1;2RCC26DG67D1HH89DVRCUK2K782E7J;1352391568;Windows;Firefox-16;United States;72.18.42.139;20;272;300;0;1588;0;1;162
ASSVZOJI3IN9R;2Y4CF0CP5KXPDW0RG8PGAPMAGUZXW4;2RCC26DG67D1HH89DVRCUK2K782E7J;1352391568;Windows;Chrome-22;United States;184.167.213.251;9;67;75;67;3548;1;-1;79
AWE8DF2ZY0LB2;20W5UUKQOYGN2AEWQJFG610ALRAFXP;2RCC26DG67D1HH89DVRCUK2K782E7J;1352391568;Windows;Chrome-22;India;122.164.41.191;28;213;80;0;2623;1;1;144
A34ZSF2JSRXIRP;20O618N46UXFWRHEVN5TTDSQMGBPR5;2RCC26DG67D1HH89DVRCUK2K782E7J;1352391569;Windows;Firefox-16;United States;107.15.89.57;16;216;250;0;3062;1;1;127
A3MLRH6BKWKP7M;2IF46UXFCD45HQR2LOJNZKIQWPAVTA;2RCC26DG67D1HH89DVRCUK2K782E7J;1352391569;Windows;Firefox-17;India;117.206.130.118;12;98;70;0;3750;-1;1;70
A2ZRJMJTE6ID97;262VKI62NJQ2LLF87KHHCBKO5R8LTH;2RCC26DG67D1HH89DVRCUK2K782E7J;1352391569;Windows;Firefox-12;India;14.99.76.81;4;325;90;325;2527;1;-1;12
AMSWIR4J9XEIJ;2BG3W5XH0JPPCWFTWPGLYP78DHGEKH;2RCC26DG67D1HH89DVRCUK2K782E7J;1352391569;Mac;Chrome-20;United States;96.19.52.191;6;301;300;301;1505;-1;-1;46
A1U3PULHJJGGCC;2M8W40SPW1IN6VT7OFA3TAB94BGE1E;2RCC26DG67D1HH89DVRCUK2K782E7J;1352391569;Windows;Chrome-22;India;202.164.138.250;4;75;80;75;6956;-1;-1;32
ACBII8A4LM01Y;2UG2L92HECWAQBG7MN3F6CP8DTJIHQ;2RCC26DG67D1HH89DVRCUK2K782E7J;1352391570;Windows;Firefox-16;India;117.202.17.98;2;29;12;29;9483;1;-1;3
A3OZ288I9CBLWF;2W2ZHHRRLFQ08104PSSKNO9H9N5OFT;2RCC26DG67D1HH89DVRCUK2K782E7J;1352391570;Linux;Chrome-20;United States;66.233.46.185;6;343;489;343;5157;-1;-1;40
A2Q27LZW3VNDIP;2YVW5XH0JPPS2GX7C0CSV75NEI0LF9;2RCC26DG67D1HH89DVRCUK2K782E7J;1352391570;Windows;Chrome-23;India;115.241.73.198;10;184;180;184;2925;1;-1;75
A2PEL01IY4YBLJ;20NJ8EBDPGFLQ9PYUA0RTDWLHRVG1X;2RCC26DG67D1HH89DVRCUK2K782E7J;1352391570;Windows;Chrome-22;India;122.174.101.16;12;99;70;0;6267;-1;1;74
A25JVQ5GJRGMM1;2U1RJ85OZIZE10NJNXFOW5EZITEX9E;2RCC26DG67D1HH89DVRCUK2K782E7J;1352391570;Windows;Chrome-22;India;106.211.155.150;14;324;300;0;2639;1;1;102
A22SZHZTF72TRM;2OKCWY2AOO2G60RPMZ7QYCM9B64334;2RCC26DG67D1HH89DVRCUK2K782E7J;1352391570;Windows;Chrome-23;United States;209.23.243.42;12;432;400;0;4255;1;1;95
A2FV0CMG9S8CU0;2GK8SV7WGKCCFZYCALU3SHASJ06R14;2RCC26DG67D1HH89DVRCUK2K782E7J;1352391570;Windows;Firefox-16;United States;97.80.123.111;9;430;400;430;2744;1;-1;69
ACAUVIM5G3NL2;21KQV66RLPHIDHU4ULMKO62QCMWE6C;2RCC26DG67D1HH89DVRCUK2K782E7J;1352391571;Windows;Chrome-22;United States;65.189.251.248;8;353;321;353;6411;-1;-1;51
A398FQD40SOL0R;25J14IXKO2L9MVRLULXX9YOF5BUBC1;2RCC26DG67D1HH89DVRCUK2K782E7J;1352391571;Windows;Firefox-16;United States;72.18.42.139;21;437;500;0;1195;0;1;171
AW9983V6TUGF8;2Z9IT3HVWAVK2KFWH1T1D2ZC2MAMET;2RCC26DG67D1HH89DVRCUK2K782E7J;1352391571;Windows;Firefox-16;India;116.202.166.75;5;358;290;358;6119;-1;-1;41
AO3XB5I5QNNUI;24MU00OQKKA42W5HQDL2C80HPW5XXX;2RCC26DG67D1HH89DVRCUK2K782E7J;1352391572;Windows;Firefox-16;United States;63.228.82.54;4;316;350;316;4299;0;-1;30
A2XM6C78S9L8UG;20SJG5TYMNCWIPHIDKJSYHX4UFIIMZ;2RCC26DG67D1HH89DVRCUK2K782E7J;1352391572;Windows;Firefox-16;United States;186.151.136.158;12;103;85;0;1964;1;1;102
A33DZYZ8E2LO1D;2ZV6XBAT2D5NAC0EDEH0PG5WRII151;2RCC26DG67D1HH89DVRCUK2K782E7J;1352391572;Windows;Safari-5.1;United States;99.73.182.81;8;401;390;401;3679;0;-1;69
A1LLJH1R94P26O;2AJYNJ92NJKMKJOVH4LH4W2JML37CB;2RCC26DG67D1HH89DVRCUK2K782E7J;1352391572;Windows;Chrome-22;United States;24.182.230.183;12;483;425;0;3002;1;1;94
A1QY7CBO7FNPO8;2ZKI2KYEPLSPRJXUKHNJ9OAKJAKOUS;2RCC26DG67D1HH89DVRCUK2K782E7J;1352391572;Linux;Chrome-18;United States;172.223.132.33;10;296;250;296;4743;-1;-1;51
AWE8DF2ZY0LB2;20W5UUKQOYGN2AEWQJFG610ALRAFXP;2RCC26DG67D1HH89DVRCUK2K782E7J;1352391573;Windows;Chrome-22;India;122.164.41.191;29;15;20;0;2135;1;1;151
AMSWIR4J9XEIJ;2BG3W5XH0JPPCWFTWPGLYP78DHGEKH;2RCC26DG67D1HH89DVRCUK2K782E7J;1352391573;Mac;Chrome-20;United States;96.19.52.191;7;461;400;461;1627;-1;-1;55
AWQ2DG8RUK1ZS;299HRRLFQ0ON794QZV8OFEGU430QH1;2RCC26DG67D1HH89DVRCUK2K782E7J;1352391573;Windows;Chrome-23;United States;74.62.120.82;15;296;350;0;5332;-1;1;123
A3EYWJCIO1MG9W;2BI6SVQ8H88MA8JU3Z2VII1UQTYP68;2RCC26DG67D1HH89DVRCUK2K782E7J;1352391573;Windows;Chrome-22;United States;67.41.201.244;7;482;444;482;3235;1;-1;52
A42HOWK7GR37J;26TVP9746OQ1C13Z51X7651TD8I1LP;2RCC26DG67D1HH89DVRCUK2K782E7J;1352391573;Windows;Chrome-23;United States;68.230.29.118;1;467;300;467;5632;-1;-1;4
A2KLDA6MCHVV4V;249YW2GTP9RAR6I5KCX94SOI0WDTO6;2RCC26DG67D1HH89DVRCUK2K782E7J;1352391573;Windows;Firefox-5;India;122.174.108.68;12;266;150;0;3417;0;1;86
A2C7S47L8RZKZ7;2QQQ4J3NAB6BZ0SOM9PIZ1TM899ER9;2RCC26DG67D1HH89DVRCUK2K782E7J;1352391573;Windows;Chrome-22;India;101.63.185.34;15;316;300;0;3324;0;1;98
A34ZSF2JSRXIRP;20O618N46UXFWRHEVN5TTDSQMGBPR5;2RCC26DG67D1HH89DVRCUK2K782E7J;1352391574;Windows;Firefox-16;United States;107.15.89.57;17;390;420;0;2739;1;1;137
ABSUHBDLLVK01;2TOKUDD8XMB3AHM8YMXUZO6WXAPODI;2RCC26DG67D1HH89DVRCUK2K782E7J;1352391574;Windows;Chrome-22;India;124.155.255.185;20;92;110;0;5133;0;1;142
A398FQD40SOL0R;25J14IXKO2L9MVRLULXX9YOF5BUBC1;2RCC26DG67D1HH89DVRCUK2K782E7J;1352391574;Windows;Firefox-16;United States;72.18.42.139;22;85;100;0;1152;0;1;180
ASSVZOJI3IN9R;2Y4CF0CP5KXPDW0RG8PGAPMAGUZXW4;2RCC26DG67D1HH89DVRCUK2K782E7J;1352391574;Windows;Chrome-22;United States;184.167.213.251;10;237;220;237;4024;1;-1;89
A2YZFD5B4LSA0R;2UO4ZMAZHHRR5T39MYEVXH1NAK3BKE;2RCC26DG67D1HH89DVRCUK2K782E7J;1352391575;Windows;Chrome-22;India;106.67.183.149;5;153;135;153;7924;0;-1;34
A1KRPGEHVB6UQV;2UE05BMJTUHYGGT2NKIADS5ZFX0LG8;2RCC26DG67D1HH89DVRCUK2K782E7J;1352391575;Windows;Firefox-16;United States;96.239.128.168;5;89;70;89;5465;-1;-1;29
A3K9PGO5F3KCR8;2CCYEPLSP75K50J5HEFANQETOFKXR1;2RCC26DG67D1HH89DVRCUK2K782E7J;1352391575;Linux;Firefox-7;India;117.213.59.50;3;267;550;267;5115;0;-1;9
A25JVQ5GJRGMM1;2U1RJ85OZIZE10NJNXFOW5EZITEX9E;2RCC26DG67D1HH89DVRCUK2K782E7J;1352391575;Windows;Chrome-22;India;106.211.155.150;15;209;219;0;3007;1;1;112
A22SZHZTF72TRM;2OKCWY2AOO2G60RPMZ7QYCM9B64334;2RCC26DG67D1HH89DVRCUK2K782E7J;1352391576;Windows;Chrome-23;United States;209.23.243.42;13;329;360;0;2890;1;1;105
A3MLRH6BKWKP7M;2IF46UXFCD45HQR2LOJNZKIQWPAVTA;2RCC26DG67D1HH89DVRCUK2K782E7J;1352391576;Windows;Firefox-17;India;117.206.130.118;13;90;30;0;3678;-1;1;70
A2PEL01IY4YBLJ;20NJ8EBDPGFLQ9PYUA0RTDWLHRVG1X;2RCC26DG67D1HH89DVRCUK2K782E7J;1352391576;Windows;Chrome-22;India;122.174.101.16;13;159;66;0;3620;-1;1;74
ACAUVIM5G3NL2;21KQV66RLPHIDHU4ULMKO62QCMWE6C;2RCC26DG67D1HH89DVRCUK2K782E7J;1352391576;Windows;Chrome-22;United States;65.189.251.248;9;302;450;302;3700;-1;-1;56
A2Q27LZW3VNDIP;2YVW5XH0JPPS2GX7C0CSV75NEI0LF9;2RCC26DG67D1HH89DVRCUK2K782E7J;1352391576;Windows;Chrome-23;India;115.241.73.198;11;352;300;0;2119;1;1;84
A2FV0CMG9S8CU0;2GK8SV7WGKCCFZYCALU3SHASJ06R14;2RCC26DG67D1HH89DVRCUK2K782E7J;1352391577;Windows;Firefox-16;United States;97.80.123.111;10;429;450;429;4087;1;-1;79
A1LLJH1R94P26O;2AJYNJ92NJKMKJOVH4LH4W2JML37CB;2RCC26DG67D1HH89DVRCUK2K782E7J;1352391577;Windows;Chrome-22;United States;24.182.230.183;13;315;275;0;2701;1;1;103
AMSWIR4J9XEIJ;2BG3W5XH0JPPCWFTWPGLYP78DHGEKH;2RCC26DG67D1HH89DVRCUK2K782E7J;1352391577;Mac;Chrome-20;United States;96.19.52.191;8;423;400;423;1760;-1;-1;65
A2XM6C78S9L8UG;20SJG5TYMNCWIPHIDKJSYHX4UFIIMZ;2RCC26DG67D1HH89DVRCUK2K782E7J;1352391577;Windows;Firefox-16;United States;186.151.136.158;13;489;585;0;2629;1;1;111
A1U3PULHJJGGCC;2M8W40SPW1IN6VT7OFA3TAB94BGE1E;2RCC26DG67D1HH89DVRCUK2K782E7J;1352391577;Windows;Chrome-22;India;202.164.138.250;5;73;75;73;5437;-1;-1;42
A3OZ288I9CBLWF;2W2ZHHRRLFQ08104PSSKNO9H9N5OFT;2RCC26DG67D1HH89DVRCUK2K782E7J;1352391577;Linux;Chrome-20;United States;66.233.46.185;7;365;400;365;5625;-1;-1;50
A33DZYZ8E2LO1D;2ZV6XBAT2D5NAC0EDEH0PG5WRII151;2RCC26DG67D1HH89DVRCUK2K782E7J;1352391578;Windows;Safari-5.1;United States;99.73.182.81;9;227;220;227;3891;0;-1;79
AWE8DF2ZY0LB2;20W5UUKQOYGN2AEWQJFG610ALRAFXP;2RCC26DG67D1HH89DVRCUK2K782E7J;1352391578;Windows;Chrome-22;India;122.164.41.191;30;121;40;0;2594;1;1;151
A1QY7CBO7FNPO8;2ZKI2KYEPLSPRJXUKHNJ9OAKJAKOUS;2RCC26DG67D1HH89DVRCUK2K782E7J;1352391578;Linux;Chrome-18;United States;172.223.132.33;11;333;300;0;3845;-1;1;61
A34ZSF2JSRXIRP;20O618N46UXFWRHEVN5TTDSQMGBPR5;2RCC26DG67D1HH89DVRCUK2K782E7J;1352391578;Windows;Firefox-16;United States;107.15.89.57;18;357;450;0;2475;1;1;145
A398FQD40SOL0R;25J14IXKO2L9MVRLULXX9YOF5BUBC1;2RCC26DG67D1HH89DVRCUK2K782E7J;1352391578;Windows;Firefox-16;United States;72.18.42.139;23;336;500;0;1627;0;1;185
A2ZRJMJTE6ID97;262VKI62NJQ2LLF87KHHCBKO5R8LTH;2RCC26DG67D1HH89DVRCUK2K782E7J;1352391578;Windows;Firefox-12;India;14.99.76.81;5;318;325;318;5620;1;-1;22
A42HOWK7GR37J;26TVP9746OQ1C13Z51X7651TD8I1LP;2RCC26DG67D1HH89DVRCUK2K782E7J;1352391579;Windows;Chrome-23;United States;68.230.29.118;2;188;100;188;3169;-1;-1;6
AW9983V6TUGF8;2Z9IT3HVWAVK2KFWH1T1D2ZC2MAMET;2RCC26DG67D1HH89DVRCUK2K782E7J;1352391579;Windows;Firefox-16;India;116.202.166.75;6;71;90;71;4480;-1;-1;49
A2KLDA6MCHVV4V;249YW2GTP9RAR6I5KCX94SOI0WDTO6;2RCC26DG67D1HH89DVRCUK2K782E7J;1352391579;Windows;Firefox-5;India;122.174.108.68;13;87;90;0;2855;0;1;96
A3EYWJCIO1MG9W;2BI6SVQ8H88MA8JU3Z2VII1UQTYP68;2RCC26DG67D1HH89DVRCUK2K782E7J;1352391579;Windows;Chrome-22;United States;67.41.201.244;8;265;275;265;3658;1;-1;62
A2C7S47L8RZKZ7;2QQQ4J3NAB6BZ0SOM9PIZ1TM899ER9;2RCC26DG67D1HH89DVRCUK2K782E7J;1352391579;Windows;Chrome-22;India;101.63.185.34;16;9;20;0;3010;0;1;99
AO3XB5I5QNNUI;24MU00OQKKA42W5HQDL2C80HPW5XXX;2RCC26DG67D1HH89DVRCUK2K782E7J;1352391579;Windows;Firefox-16;United States;63.228.82.54;5;113;80;113;4884;0;-1;36
A3DZJK7NGC9DPG;2FD8I9NZW6HEJK1N21N7Z86C9QFMW9;2RCC26DG67D1HH89DVRCUK2K782E7J;1352391579;Windows;Firefox-16;United States;75.132.153.17;1;337;185;337;10589;-1;-1;2
ACBII8A4LM01Y;2UG2L92HECWAQBG7MN3F6CP8DTJIHQ;2RCC26DG67D1HH89DVRCUK2K782E7J;1352391579;Windows;Firefox-16;India;117.202.17.98;3;173;184;173;7061;1;-1;13
A25JVQ5GJRGMM1;2U1RJ85OZIZE10NJNXFOW5EZITEX9E;2RCC26DG67D1HH89DVRCUK2K782E7J;1352391580;Windows;Chrome-22;India;106.211.155.150;16;191;119;0;2252;1;1;116
AMSWIR4J9XEIJ;2BG3W5XH0JPPCWFTWPGLYP78DHGEKH;2RCC26DG67D1HH89DVRCUK2K782E7J;1352391581;Mac;Chrome-20;United States;96.19.52.191;9;82;50;82;1777;-1;-1;68
A1LLJH1R94P26O;2AJYNJ92NJKMKJOVH4LH4W2JML37CB;2RCC26DG67D1HH89DVRCUK2K782E7J;1352391581;Windows;Chrome-22;United States;24.182.230.183;14;21;20;0;2006;1;1;113
AWQ2DG8RUK1ZS;299HRRLFQ0ON794QZV8OFEGU430QH1;2RCC26DG67D1HH89DVRCUK2K782E7J;1352391581;Windows;Chrome-23;United States;74.62.120.82;16;277;375;0;5976;-1;1;130
A22SZHZTF72TRM;2OKCWY2AOO2G60RPMZ7QYCM9B64334;2RCC26DG67D1HH89DVRCUK2K782E7J;1352391581;Windows;Chrome-23;United States;209.23.243.42;14;220;210;0;2575;1;1;115
A3MLRH6BKWKP7M;2IF46UXFCD45HQR2LOJNZKIQWPAVTA;2RCC26DG67D1HH89DVRCUK2K782E7J;1352391581;Windows;Firefox-17;India;117.206.130.118;14;480;450;0;2623;-1;1;80
A398FQD40SOL0R;25J14IXKO2L9MVRLULXX9YOF5BUBC1;2RCC26DG67D1HH89DVRCUK2K782E7J;1352391581;Windows;Firefox-16;United States;72.18.42.139;24;375;400;0;1214;0;1;195
A2FV0CMG9S8CU0;2GK8SV7WGKCCFZYCALU3SHASJ06R14;2RCC26DG67D1HH89DVRCUK2K782E7J;1352391582;Windows;Firefox-16;United States;97.80.123.111;11;143;110;0;2805;1;1;86
A3K9PGO5F3KCR8;2CCYEPLSP75K50J5HEFANQETOFKXR1;2RCC26DG67D1HH89DVRCUK2K782E7J;1352391582;Linux;Firefox-7;India;117.213.59.50;4;496;550;496;3653;0;-1;19
ASSVZOJI3IN9R;2Y4CF0CP5KXPDW0RG8PGAPMAGUZXW4;2RCC26DG67D1HH89DVRCUK2K782E7J;1352391582;Windows;Chrome-22;United States;184.167.213.251;11;234;280;0;5317;1;1;98
A1KRPGEHVB6UQV;2UE05BMJTUHYGGT2NKIADS5ZFX0LG8;2RCC26DG67D1HH89DVRCUK2K782E7J;1352391582;Windows;Firefox-16;United States;96.239.128.168;6;447;200;447;4520;-1;-1;30
A2XM6C78S9L8UG;20SJG5TYMNCWIPHIDKJSYHX4UFIIMZ;2RCC26DG67D1HH89DVRCUK2K782E7J;1352391582;Windows;Firefox-16;United States;186.151.136.158;14;284;235;0;2909;1;1;120
ACAUVIM5G3NL2;21KQV66RLPHIDHU4ULMKO62QCMWE6C;2RCC26DG67D1HH89DVRCUK2K782E7J;1352391582;Windows;Chrome-22;United States;65.189.251.248;10;301;365;301;3586;-1;-1;65
ABSUHBDLLVK01;2TOKUDD8XMB3AHM8YMXUZO6WXAPODI;2RCC26DG67D1HH89DVRCUK2K782E7J;1352391582;Windows;Chrome-22;India;124.155.255.185;21;259;220;0;5323;0;1;151
AWE8DF2ZY0LB2;20W5UUKQOYGN2AEWQJFG610ALRAFXP;2RCC26DG67D1HH89DVRCUK2K782E7J;1352391583;Windows;Chrome-22;India;122.164.41.191;31;63;30;0;1867;1;1;152
A34ZSF2JSRXIRP;20O618N46UXFWRHEVN5TTDSQMGBPR5;2RCC26DG67D1HH89DVRCUK2K782E7J;1352391583;Windows;Firefox-16;United States;107.15.89.57;19;14;19;0;2822;1;1;152
A42HOWK7GR37J;26TVP9746OQ1C13Z51X7651TD8I1LP;2RCC26DG67D1HH89DVRCUK2K782E7J;1352391583;Windows;Chrome-23;United States;68.230.29.118;3;263;200;263;2656;-1;-1;13
A2Q27LZW3VNDIP;2YVW5XH0JPPS2GX7C0CSV75NEI0LF9;2RCC26DG67D1HH89DVRCUK2K782E7J;1352391584;Windows;Chrome-23;India;115.241.73.198;12;324;350;0;2828;1;1;94
A2KLDA6MCHVV4V;249YW2GTP9RAR6I5KCX94SOI0WDTO6;2RCC26DG67D1HH89DVRCUK2K782E7J;1352391584;Windows;Firefox-5;India;122.174.108.68;14;66;80;0;2490;0;1;105
A3EYWJCIO1MG9W;2BI6SVQ8H88MA8JU3Z2VII1UQTYP68;2RCC26DG67D1HH89DVRCUK2K782E7J;1352391584;Windows;Chrome-22;United States;67.41.201.244;9;23;30;23;3010;1;-1;69
A33DZYZ8E2LO1D;2ZV6XBAT2D5NAC0EDEH0PG5WRII151;2RCC26DG67D1HH89DVRCUK2K782E7J;1352391584;Windows;Safari-5.1;United States;99.73.182.81;10;227;200;227;4168;0;-1;88
A2YZFD5B4LSA0R;2UO4ZMAZHHRR5T39MYEVXH1NAK3BKE;2RCC26DG67D1HH89DVRCUK2K782E7J;1352391585;Windows;Chrome-22;India;106.67.183.149;6;387;369;387;6630;0;-1;44
A2ZRJMJTE6ID97;262VKI62NJQ2LLF87KHHCBKO5R8LTH;2RCC26DG67D1HH89DVRCUK2K782E7J;1352391585;Windows;Firefox-12;India;14.99.76.81;6;390;318;390;2934;1;-1;30
A3OZ288I9CBLWF;2W2ZHHRRLFQ08104PSSKNO9H9N5OFT;2RCC26DG67D1HH89DVRCUK2K782E7J;1352391585;Linux;Chrome-20;United States;66.233.46.185;8;457;378;457;4938;-1;-1;59
AMSWIR4J9XEIJ;2BG3W5XH0JPPCWFTWPGLYP78DHGEKH;2RCC26DG67D1HH89DVRCUK2K782E7J;1352391585;Mac;Chrome-20;United States;96.19.52.191;10;376;400;376;2192;-1;-1;78
A1LLJH1R94P26O;2AJYNJ92NJKMKJOVH4LH4W2JML37CB;2RCC26DG67D1HH89DVRCUK2K782E7J;1352391585;Windows;Chrome-22;United States;24.182.230.183;15;53;45;0;2042;1;1;122
A1U3PULHJJGGCC;2M8W40SPW1IN6VT7OFA3TAB94BGE1E;2RCC26DG67D1HH89DVRCUK2K782E7J;1352391585;Windows;Chrome-22;India;202.164.138.250;6;131;110;131;4794;-1;-1;51
A398FQD40SOL0R;25J14IXKO2L9MVRLULXX9YOF5BUBC1;2RCC26DG67D1HH89DVRCUK2K782E7J;1352391585;Windows;Firefox-16;United States;72.18.42.139;25;409;400;0;1209;0;1;205
A25JVQ5GJRGMM1;2U1RJ85OZIZE10NJNXFOW5EZITEX9E;2RCC26DG67D1HH89DVRCUK2K782E7J;1352391585;Windows;Chrome-22;India;106.211.155.150;17;378;250;0;2505;1;1;121
AO3XB5I5QNNUI;24MU00OQKKA42W5HQDL2C80HPW5XXX;2RCC26DG67D1HH89DVRCUK2K782E7J;1352391586;Windows;Firefox-16;United States;63.228.82.54;6;497;400;497;4523;0;-1;44
AW9983V6TUGF8;2Z9IT3HVWAVK2KFWH1T1D2ZC2MAMET;2RCC26DG67D1HH89DVRCUK2K782E7J;1352391586;Windows;Firefox-16;India;116.202.166.75;7;62;80;62;4290;-1;-1;57
A1QY7CBO7FNPO8;2ZKI2KYEPLSPRJXUKHNJ9OAKJAKOUS;2RCC26DG67D1HH89DVRCUK2K782E7J;1352391586;Linux;Chrome-18;United States;172.223.132.33;12;81;98;0;5417;-1;1;70
A3DZJK7NGC9DPG;2FD8I9NZW6HEJK1N21N7Z86C9QFMW9;2RCC26DG67D1HH89DVRCUK2K782E7J;1352391586;Windows;Firefox-16;United States;75.132.153.17;2;489;382;489;4678;-1;-1;10
A2C7S47L8RZKZ7;2QQQ4J3NAB6BZ0SOM9PIZ1TM899ER9;2RCC26DG67D1HH89DVRCUK2K782E7J;1352391587;Windows;Chrome-22;India;101.63.185.34;17;202;200;0;4773;0;1;109
A22SZHZTF72TRM;2OKCWY2AOO2G60RPMZ7QYCM9B64334;2RCC26DG67D1HH89DVRCUK2K782E7J;1352391587;Windows;Chrome-23;United States;209.23.243.42;15;42;39;0;3134;1;1;125
A3MLRH6BKWKP7M;2IF46UXFCD45HQR2LOJNZKIQWPAVTA;2RCC26DG67D1HH89DVRCUK2K782E7J;1352391587;Windows;Firefox-17;India;117.206.130.118;15;307;500;0;2753;-1;1;84
AWE8DF2ZY0LB2;20W5UUKQOYGN2AEWQJFG610ALRAFXP;2RCC26DG67D1HH89DVRCUK2K782E7J;1352391587;Windows;Chrome-22;India;122.164.41.191;32;188;80;0;2347;1;1;152
A2XM6C78S9L8UG;20SJG5TYMNCWIPHIDKJSYHX4UFIIMZ;2RCC26DG67D1HH89DVRCUK2K782E7J;1352391588;Windows;Firefox-16;United States;186.151.136.158;15;103;110;0;3007;1;1;130
ASSVZOJI3IN9R;2Y4CF0CP5KXPDW0RG8PGAPMAGUZXW4;2RCC26DG67D1HH89DVRCUK2K782E7J;1352391588;Windows;Chrome-22;United States;184.167.213.251;12;466;500;0;3720;1;1;108
A42HOWK7GR37J;26TVP9746OQ1C13Z51X7651TD8I1LP;2RCC26DG67D1HH89DVRCUK2K782E7J;1352391588;Windows;Chrome-23;United States;68.230.29.118;4;261;250;261;2727;-1;-1;23
AMSWIR4J9XEIJ;2BG3W5XH0JPPCWFTWPGLYP78DHGEKH;2RCC26DG67D1HH89DVRCUK2K782E7J;1352391588;Mac;Chrome-20;United States;96.19.52.191;11;270;300;0;1585;-1;1;88
A398FQD40SOL0R;25J14IXKO2L9MVRLULXX9YOF5BUBC1;2RCC26DG67D1HH89DVRCUK2K782E7J;1352391589;Windows;Firefox-16;United States;72.18.42.139;26;80;150;0;1616;0;1;207
AWQ2DG8RUK1ZS;299HRRLFQ0ON794QZV8OFEGU430QH1;2RCC26DG67D1HH89DVRCUK2K782E7J;1352391589;Windows;Chrome-23;United States;74.62.120.82;17;437;360;0;5595;-1;1;138
A33DZYZ8E2LO1D;2ZV6XBAT2D5NAC0EDEH0PG5WRII151;2RCC26DG67D1HH89DVRCUK2K782E7J;1352391589;Windows;Safari-5.1;United States;99.73.182.81;11;95;62;0;2529;0;1;93
ACBII8A4LM01Y;2UG2L92HECWAQBG7MN3F6CP8DTJIHQ;2RCC26DG67D1HH89DVRCUK2K782E7J;1352391589;Windows;Firefox-16;India;117.202.17.98;4;405;230;405;6764;1;-1;15
A34ZSF2JSRXIRP;20O618N46UXFWRHEVN5TTDSQMGBPR5;2RCC26DG67D1HH89DVRCUK2K782E7J;1352391589;Windows;Firefox-16;United States;107.15.89.57;20;477;460;0;3460;1;1;162
ABSUHBDLLVK01;2TOKUDD8XMB3AHM8YMXUZO6WXAPODI;2RCC26DG67D1HH89DVRCUK2K782E7J;1352391589;Windows;Chrome-22;India;124.155.255.185;22;219;200;0;3110;0;1;161
A3H3TOM3XQQJER;28F5F3Q0JG5TI00LU924FF9VLOAHDM;2RCC26DG67D1HH89DVRCUK2K782E7J;1352391589;Windows;Chrome-23;Tunisia;197.2.184.3;1;137;100;137;11432;1;-1;6
ACAUVIM5G3NL2;21KQV66RLPHIDHU4ULMKO62QCMWE6C;2RCC26DG67D1HH89DVRCUK2K782E7J;1352391589;Windows;Chrome-22;United States;65.189.251.248;11;299;222;0;4946;-1;1;72
A2FV0CMG9S8CU0;2GK8SV7WGKCCFZYCALU3SHASJ06R14;2RCC26DG67D1HH89DVRCUK2K782E7J;1352391590;Windows;Firefox-16;United States;97.80.123.111;12;230;390;0;5635;1;1;89
A1BHVRE037LMAY;2PC0COK2JE1MR3XT7WIWCOZD5WXMTJ;2RCC26DG67D1HH89DVRCUK2K782E7J;1352391590;Windows;Firefox-14;United States;71.189.6.239;1;299;100;299;20043;0;-1;0
A2PEL01IY4YBLJ;20NJ8EBDPGFLQ9PYUA0RTDWLHRVG1X;2RCC26DG67D1HH89DVRCUK2K782E7J;1352391590;Windows;Chrome-22;India;122.174.101.16;14;349;85;0;10084;-1;1;74
A3K9PGO5F3KCR8;2CCYEPLSP75K50J5HEFANQETOFKXR1;2RCC26DG67D1HH89DVRCUK2K782E7J;1352391590;Linux;Firefox-7;India;117.213.59.50;5;370;500;370;5287;0;-1;26
A1KRPGEHVB6UQV;2UE05BMJTUHYGGT2NKIADS5ZFX0LG8;2RCC26DG67D1HH89DVRCUK2K782E7J;1352391590;Windows;Firefox-16;United States;96.239.128.168;7;252;275;252;5702;-1;-1;40
A1LLJH1R94P26O;2AJYNJ92NJKMKJOVH4LH4W2JML37CB;2RCC26DG67D1HH89DVRCUK2K782E7J;1352391590;Windows;Chrome-22;United States;24.182.230.183;16;238;185;0;3029;1;1;130
A3EYWJCIO1MG9W;2BI6SVQ8H88MA8JU3Z2VII1UQTYP68;2RCC26DG67D1HH89DVRCUK2K782E7J;1352391590;Windows;Chrome-22;United States;67.41.201.244;10;448;333;448;4105;1;-1;76
A2KLDA6MCHVV4V;249YW2GTP9RAR6I5KCX94SOI0WDTO6;2RCC26DG67D1HH89DVRCUK2K782E7J;1352391590;Windows;Firefox-5;India;122.174.108.68;15;291;300;0;3759;0;1;115
A25JVQ5GJRGMM1;2U1RJ85OZIZE10NJNXFOW5EZITEX9E;2RCC26DG67D1HH89DVRCUK2K782E7J;1352391591;Windows;Chrome-22;India;106.211.155.150;18;34;20;0;2498;1;1;124
A2UHF7UL7G0Y78;2X2B6BFMFFOYIW6ARU6DMESFTNQXK8;2RCC26DG67D1HH89DVRCUK2K782E7J;1352391592;Windows;Firefox-16;United States;108.14.233.119;1;84;0;84;9849;0;-1;0
A2C7S47L8RZKZ7;2QQQ4J3NAB6BZ0SOM9PIZ1TM899ER9;2RCC26DG67D1HH89DVRCUK2K782E7J;1352391592;Windows;Chrome-22;India;101.63.185.34;18;170;250;0;2897;0;1;114
A1U3PULHJJGGCC;2M8W40SPW1IN6VT7OFA3TAB94BGE1E;2RCC26DG67D1HH89DVRCUK2K782E7J;1352391592;Windows;Chrome-22;India;202.164.138.250;7;406;540;406;5019;-1;-1;58
ANC4V5VPVPYFN;25Y6RLPHIT3HFAN4ITX2TJQ5U3VH95;2RCC26DG67D1HH89DVRCUK2K782E7J;1352391592;Windows;Chrome-22;United States;72.226.111.211;1;86;25;86;4908;0;-1;0
AWE8DF2ZY0LB2;20W5UUKQOYGN2AEWQJFG610ALRAFXP;2RCC26DG67D1HH89DVRCUK2K782E7J;1352391592;Windows;Chrome-22;India;122.164.41.191;33;447;360;0;2549;1;1;160
A398FQD40SOL0R;25J14IXKO2L9MVRLULXX9YOF5BUBC1;2RCC26DG67D1HH89DVRCUK2K782E7J;1352391592;Windows;Firefox-16;United States;72.18.42.139;27;216;200;0;1740;0;1;217
A3DZJK7NGC9DPG;2FD8I9NZW6HEJK1N21N7Z86C9QFMW9;2RCC26DG67D1HH89DVRCUK2K782E7J;1352391592;Windows;Firefox-16;United States;75.132.153.17;3;214;448;214;3687;-1;-1;11
AMSWIR4J9XEIJ;2BG3W5XH0JPPCWFTWPGLYP78DHGEKH;2RCC26DG67D1HH89DVRCUK2K782E7J;1352391593;Mac;Chrome-20;United States;96.19.52.191;12;45;30;0;2080;-1;1;93
A22SZHZTF72TRM;2OKCWY2AOO2G60RPMZ7QYCM9B64334;2RCC26DG67D1HH89DVRCUK2K782E7J;1352391593;Windows;Chrome-23;United States;209.23.243.42;16;35;30;0;2859;1;1;134
A1QY7CBO7FNPO8;2ZKI2KYEPLSPRJXUKHNJ9OAKJAKOUS;2RCC26DG67D1HH89DVRCUK2K782E7J;1352391593;Linux;Chrome-18;United States;172.223.132.33;13;102;39;0;4460;-1;1;70
AW9983V6TUGF8;2Z9IT3HVWAVK2KFWH1T1D2ZC2MAMET;2RCC26DG67D1HH89DVRCUK2K782E7J;1352391593;Windows;Firefox-16;India;116.202.166.75;8;126;105;126;3877;-1;-1;66
A3MLRH6BKWKP7M;2IF46UXFCD45HQR2LOJNZKIQWPAVTA;2RCC26DG67D1HH89DVRCUK2K782E7J;1352391593;Windows;Firefox-17;India;117.206.130.118;16;99;192;0;3077;-1;1;85
A2Q27LZW3VNDIP;2YVW5XH0JPPS2GX7C0CSV75NEI0LF9;2RCC26DG67D1HH89DVRCUK2K782E7J;1352391593;Windows;Chrome-23;India;115.241.73.198;13;72;60;0;4985;1;1;103
ASSVZOJI3IN9R;2Y4CF0CP5KXPDW0RG8PGAPMAGUZXW4;2RCC26DG67D1HH89DVRCUK2K782E7J;1352391593;Windows;Chrome-22;United States;184.167.213.251;13;457;450;0;3291;1;1;118
A2XM6C78S9L8UG;20SJG5TYMNCWIPHIDKJSYHX4UFIIMZ;2RCC26DG67D1HH89DVRCUK2K782E7J;1352391594;Windows;Firefox-16;United States;186.151.136.158;16;458;526;0;2990;1;1;139
AO3XB5I5QNNUI;24MU00OQKKA42W5HQDL2C80HPW5XXX;2RCC26DG67D1HH89DVRCUK2K782E7J;1352391594;Windows;Firefox-16;United States;63.228.82.54;7;492;450;492;5027;0;-1;54
A3OZ288I9CBLWF;2W2ZHHRRLFQ08104PSSKNO9H9N5OFT;2RCC26DG67D1HH89DVRCUK2K782E7J;1352391594;Linux;Chrome-20;United States;66.233.46.185;9;280;402;280;6793;-1;-1;65
A42HOWK7GR37J;26TVP9746OQ1C13Z51X7651TD8I1LP;2RCC26DG67D1HH89DVRCUK2K782E7J;1352391594;Windows;Chrome-23;United States;68.230.29.118;5;435;280;435;3704;-1;-1;27
A2YZFD5B4LSA0R;2UO4ZMAZHHRR5T39MYEVXH1NAK3BKE;2RCC26DG67D1HH89DVRCUK2K782E7J;1352391594;Windows;Chrome-22;India;106.67.183.149;7;414;411;414;5913;0;-1;54
A1LLJH1R94P26O;2AJYNJ92NJKMKJOVH4LH4W2JML37CB;2RCC26DG67D1HH89DVRCUK2K782E7J;1352391594;Windows;Chrome-22;United States;24.182.230.183;17;105;120;0;2015;1;1;139
A34ZSF2JSRXIRP;20O618N46UXFWRHEVN5TTDSQMGBPR5;2RCC26DG67D1HH89DVRCUK2K782E7J;1352391594;Windows;Firefox-16;United States;107.15.89.57;21;494;500;0;3045;1;1;172
A33DZYZ8E2LO1D;2ZV6XBAT2D5NAC0EDEH0PG5WRII151;2RCC26DG67D1HH89DVRCUK2K782E7J;1352391594;Windows;Safari-5.1;United States;99.73.182.81;12;131;80;0;3315;0;1;96
AUKUYL50PIUMC;2CYDG67D1X3VKTX9AZB2PE1P0LDHAK;2RCC26DG67D1HH89DVRCUK2K782E7J;1352391595;Windows;Firefox-16;United States;112.202.28.168;1;170;150;170;7006;0;-1;9
A3EYWJCIO1MG9W;2BI6SVQ8H88MA8JU3Z2VII1UQTYP68;2RCC26DG67D1HH89DVRCUK2K782E7J;1352391595;Windows;Chrome-22;United States;67.41.201.244;11;496;555;0;2075;1;1;85
A2ZRJMJTE6ID97;262VKI62NJQ2LLF87KHHCBKO5R8LTH;2RCC26DG67D1HH89DVRCUK2K782E7J;1352391595;Windows;Firefox-12;India;14.99.76.81;7;185;421;185;6532;1;-1;31
A2KLDA6MCHVV4V;249YW2GTP9RAR6I5KCX94SOI0WDTO6;2RCC26DG67D1HH89DVRCUK2K782E7J;1352391595;Windows;Firefox-5;India;122.174.108.68;16;344;300;0;1787;0;1;124
ACBII8A4LM01Y;2UG2L92HECWAQBG7MN3F6CP8DTJIHQ;2RCC26DG67D1HH89DVRCUK2K782E7J;1352391596;Windows;Firefox-16;India;117.202.17.98;5;146;340;146;3189;1;-1;15
ACAUVIM5G3NL2;21KQV66RLPHIDHU4ULMKO62QCMWE6C;2RCC26DG67D1HH89DVRCUK2K782E7J;1352391596;Windows;Chrome-22;United States;65.189.251.248;12;487;500;0;4014;-1;1;82
AC79XT2Z4O3JZ;24PFCD45XCET7R5WRV9N9TGSXW3XZU;2RCC26DG67D1HH89DVRCUK2K782E7J;1352391596;Windows;Chrome-22;United States;71.28.217.24;1;466;100;466;8861;1;-1;0
AMSWIR4J9XEIJ;2BG3W5XH0JPPCWFTWPGLYP78DHGEKH;2RCC26DG67D1HH89DVRCUK2K782E7J;1352391596;Mac;Chrome-20;United States;96.19.52.191;13;9;10;0;1265;-1;1;103
A25JVQ5GJRGMM1;2U1RJ85OZIZE10NJNXFOW5EZITEX9E;2RCC26DG67D1HH89DVRCUK2K782E7J;1352391596;Windows;Chrome-22;India;106.211.155.150;19;284;300;0;2227;1;1;134
A2FV0CMG9S8CU0;2GK8SV7WGKCCFZYCALU3SHASJ06R14;2RCC26DG67D1HH89DVRCUK2K782E7J;1352391596;Windows;Firefox-16;United States;97.80.123.111;13;269;290;0;4252;1;1;99
A1KRPGEHVB6UQV;2UE05BMJTUHYGGT2NKIADS5ZFX0LG8;2RCC26DG67D1HH89DVRCUK2K782E7J;1352391596;Windows;Firefox-16;United States;96.239.128.168;8;365;350;365;3723;-1;-1;50
A398FQD40SOL0R;25J14IXKO2L9MVRLULXX9YOF5BUBC1;2RCC26DG67D1HH89DVRCUK2K782E7J;1352391596;Windows;Firefox-16;United States;72.18.42.139;28;44;50;0;1651;0;1;226
AWQ2DG8RUK1ZS;299HRRLFQ0ON794QZV8OFEGU430QH1;2RCC26DG67D1HH89DVRCUK2K782E7J;1352391596;Windows;Chrome-23;United States;74.62.120.82;18;259;280;0;5420;-1;1;148
A3K9PGO5F3KCR8;2CCYEPLSP75K50J5HEFANQETOFKXR1;2RCC26DG67D1HH89DVRCUK2K782E7J;1352391597;Linux;Firefox-7;India;117.213.59.50;6;342;450;342;4536;0;-1;33
ABSUHBDLLVK01;2TOKUDD8XMB3AHM8YMXUZO6WXAPODI;2RCC26DG67D1HH89DVRCUK2K782E7J;1352391597;Windows;Chrome-22;India;124.155.255.185;23;139;180;0;5395;0;1;168
A3H3TOM3XQQJER;28F5F3Q0JG5TI00LU924FF9VLOAHDM;2RCC26DG67D1HH89DVRCUK2K782E7J;1352391598;Windows;Chrome-23;Tunisia;197.2.184.3;2;33;80;33;6036;1;-1;6
A22SZHZTF72TRM;2OKCWY2AOO2G60RPMZ7QYCM9B64334;2RCC26DG67D1HH89DVRCUK2K782E7J;1352391598;Windows;Chrome-23;United States;209.23.243.42;17;17;17;0;2495;1;1;144
A2PEL01IY4YBLJ;20NJ8EBDPGFLQ9PYUA0RTDWLHRVG1X;2RCC26DG67D1HH89DVRCUK2K782E7J;1352391598;Windows;Chrome-22;India;122.174.101.16;15;288;125;0;4857;-1;1;74
A2C7S47L8RZKZ7;2QQQ4J3NAB6BZ0SOM9PIZ1TM899ER9;2RCC26DG67D1HH89DVRCUK2K782E7J;1352391598;Windows;Chrome-22;India;101.63.185.34;19;392;450;0;2750;0;1;123
A1LLJH1R94P26O;2AJYNJ92NJKMKJOVH4LH4W2JML37CB;2RCC26DG67D1HH89DVRCUK2K782E7J;1352391598;Windows;Chrome-22;United States;24.182.230.183;18;95;75;0;1795;1;1;147
A3DZJK7NGC9DPG;2FD8I9NZW6HEJK1N21N7Z86C9QFMW9;2RCC26DG67D1HH89DVRCUK2K782E7J;1352391598;Windows;Firefox-16;United States;75.132.153.17;4;265;225;265;3552;-1;-1;20
ANC4V5VPVPYFN;25Y6RLPHIT3HFAN4ITX2TJQ5U3VH95;2RCC26DG67D1HH89DVRCUK2K782E7J;1352391598;Windows;Chrome-22;United States;72.226.111.211;2;347;200;347;3699;0;-1;3
ASSVZOJI3IN9R;2Y4CF0CP5KXPDW0RG8PGAPMAGUZXW4;2RCC26DG67D1HH89DVRCUK2K782E7J;1352391598;Windows;Chrome-22;United States;184.167.213.251;14;343;275;0;2740;1;1;126
A42HOWK7GR37J;26TVP9746OQ1C13Z51X7651TD8I1LP;2RCC26DG67D1HH89DVRCUK2K782E7J;1352391598;Windows;Chrome-23;United States;68.230.29.118;6;160;150;160;2766;-1;-1;37
A2XM6C78S9L8UG;20SJG5TYMNCWIPHIDKJSYHX4UFIIMZ;2RCC26DG67D1HH89DVRCUK2K782E7J;1352391599;Windows;Firefox-16;United States;186.151.136.158;17;499;617;0;2811;1;1;147
AWE8DF2ZY0LB2;20W5UUKQOYGN2AEWQJFG610ALRAFXP;2RCC26DG67D1HH89DVRCUK2K782E7J;1352391599;Windows;Chrome-22;India;122.164.41.191;34;286;280;0;4237;1;1;170
A3MLRH6BKWKP7M;2IF46UXFCD45HQR2LOJNZKIQWPAVTA;2RCC26DG67D1HH89DVRCUK2K782E7J;1352391599;Windows;Firefox-17;India;117.206.130.118;17;340;450;0;3251;-1;1;92
A3EYWJCIO1MG9W;2BI6SVQ8H88MA8JU3Z2VII1UQTYP68;2RCC26DG67D1HH89DVRCUK2K782E7J;1352391599;Windows;Chrome-22;United States;67.41.201.244;12;160;123;0;2537;1;1;92
A1QY7CBO7FNPO8;2ZKI2KYEPLSPRJXUKHNJ9OAKJAKOUS;2RCC26DG67D1HH89DVRCUK2K782E7J;1352391599;Linux;Chrome-18;United States;172.223.132.33;14;349;340;0;4731;-1;1;80
A2KLDA6MCHVV4V;249YW2GTP9RAR6I5KCX94SOI0WDTO6;2RCC26DG67D1HH89DVRCUK2K782E7J;1352391599;Windows;Firefox-5;India;122.174.108.68;17;334;310;0;1970;0;1;134
A34ZSF2JSRXIRP;20O618N46UXFWRHEVN5TTDSQMGBPR5;2RCC26DG67D1HH89DVRCUK2K782E7J;1352391600;Windows;Firefox-16;United States;107.15.89.57;22;233;300;0;3114;1;1;180
AO3XB5I5QNNUI;24MU00OQKKA42W5HQDL2C80HPW5XXX;2RCC26DG67D1HH89DVRCUK2K782E7J;1352391600;Windows;Firefox-16;United States;63.228.82.54;8;412;400;412;4155;0;-1;64
A1U3PULHJJGGCC;2M8W40SPW1IN6VT7OFA3TAB94BGE1E;2RCC26DG67D1HH89DVRCUK2K782E7J;1352391600;Windows;Chrome-22;India;202.164.138.250;8;272;300;272;5226;-1;-1;68
A3OZ288I9CBLWF;2W2ZHHRRLFQ08104PSSKNO9H9N5OFT;2RCC26DG67D1HH89DVRCUK2K782E7J;1352391600;Linux;Chrome-20;United States;66.233.46.185;10;55;56;55;4431;-1;-1;75
A33DZYZ8E2LO1D;2ZV6XBAT2D5NAC0EDEH0PG5WRII151;2RCC26DG67D1HH89DVRCUK2K782E7J;1352391600;Windows;Safari-5.1;United States;99.73.182.81;13;295;150;0;3497;0;1;97
AMSWIR4J9XEIJ;2BG3W5XH0JPPCWFTWPGLYP78DHGEKH;2RCC26DG67D1HH89DVRCUK2K782E7J;1352391600;Mac;Chrome-20;United States;96.19.52.191;14;383;300;0;2313;-1;1;111
A398FQD40SOL0R;25J14IXKO2L9MVRLULXX9YOF5BUBC1;2RCC26DG67D1HH89DVRCUK2K782E7J;1352391601;Windows;Firefox-16;United States;72.18.42.139;29;124;120;0;2298;0;1;236
ACBII8A4LM01Y;2UG2L92HECWAQBG7MN3F6CP8DTJIHQ;2RCC26DG67D1HH89DVRCUK2K782E7J;1352391602;Windows;Firefox-16;India;117.202.17.98;6;341;560;341;2611;1;-1;18
A25JVQ5GJRGMM1;2U1RJ85OZIZE10NJNXFOW5EZITEX9E;2RCC26DG67D1HH89DVRCUK2K782E7J;1352391602;Windows;Chrome-22;India;106.211.155.150;20;405;350;0;2652;1;1;143
AUKUYL50PIUMC;2CYDG67D1X3VKTX9AZB2PE1P0LDHAK;2RCC26DG67D1HH89DVRCUK2K782E7J;1352391602;Windows;Firefox-16;United States;112.202.28.168;2;243;190;243;4884;0;-1;17
AW9983V6TUGF8;2Z9IT3HVWAVK2KFWH1T1D2ZC2MAMET;2RCC26DG67D1HH89DVRCUK2K782E7J;1352391602;Windows;Firefox-16;India;116.202.166.75;9;224;140;224;5929;-1;-1;70
A2TPIS2HB11T7R;21FDWIOV1S7S7HQ2E5S34DZBG4LYJH;2RCC26DG67D1HH89DVRCUK2K782E7J;1352391602;Windows;Chrome-23;India;183.82.179.106;1;288;180;288;24512;-1;-1;4
ABSUHBDLLVK01;2TOKUDD8XMB3AHM8YMXUZO6WXAPODI;2RCC26DG67D1HH89DVRCUK2K782E7J;1352391602;Windows;Chrome-22;India;124.155.255.185;24;8;10;0;2169;0;1;176
A2Q27LZW3VNDIP;2YVW5XH0JPPS2GX7C0CSV75NEI0LF9;2RCC26DG67D1HH89DVRCUK2K782E7J;1352391602;Windows;Chrome-23;India;115.241.73.198;14;354;350;0;3073;1;1;113
A2UHF7UL7G0Y78;2X2B6BFMFFOYIW6ARU6DMESFTNQXK8;2RCC26DG67D1HH89DVRCUK2K782E7J;1352391602;Windows;Firefox-16;United States;108.14.233.119;2;312;100;312;7770;0;-1;0
A1LLJH1R94P26O;2AJYNJ92NJKMKJOVH4LH4W2JML37CB;2RCC26DG67D1HH89DVRCUK2K782E7J;1352391602;Windows;Chrome-22;United States;24.182.230.183;19;133;100;0;1941;1;1;154
AWQ2DG8RUK1ZS;299HRRLFQ0ON794QZV8OFEGU430QH1;2RCC26DG67D1HH89DVRCUK2K782E7J;1352391602;Windows;Chrome-23;United States;74.62.120.82;19;248;170;0;3948;-1;1;153
A42HOWK7GR37J;26TVP9746OQ1C13Z51X7651TD8I1LP;2RCC26DG67D1HH89DVRCUK2K782E7J;1352391603;Windows;Chrome-23;United States;68.230.29.118;7;292;250;292;2508;-1;-1;46
A2YZFD5B4LSA0R;2UO4ZMAZHHRR5T39MYEVXH1NAK3BKE;2RCC26DG67D1HH89DVRCUK2K782E7J;1352391603;Windows;Chrome-22;India;106.67.183.149;8;244;214;244;4898;0;-1;63
ACAUVIM5G3NL2;21KQV66RLPHIDHU4ULMKO62QCMWE6C;2RCC26DG67D1HH89DVRCUK2K782E7J;1352391603;Windows;Chrome-22;United States;65.189.251.248;13;417;501;0;5259;-1;1;91
A2C7S47L8RZKZ7;2QQQ4J3NAB6BZ0SOM9PIZ1TM899ER9;2RCC26DG67D1HH89DVRCUK2K782E7J;1352391603;Windows;Chrome-22;India;101.63.185.34;20;298;500;0;2549;0;1;126
ASSVZOJI3IN9R;2Y4CF0CP5KXPDW0RG8PGAPMAGUZXW4;2RCC26DG67D1HH89DVRCUK2K782E7J;1352391603;Windows;Chrome-22;United States;184.167.213.251;15;280;200;0;2863;1;1;132
A2FV0CMG9S8CU0;2GK8SV7WGKCCFZYCALU3SHASJ06R14;2RCC26DG67D1HH89DVRCUK2K782E7J;1352391603;Windows;Firefox-16;United States;97.80.123.111;14;314;325;0;4097;1;1;109
A1KRPGEHVB6UQV;2UE05BMJTUHYGGT2NKIADS5ZFX0LG8;2RCC26DG67D1HH89DVRCUK2K782E7J;1352391603;Windows;Firefox-16;United States;96.239.128.168;9;216;125;216;5089;-1;-1;53
A3EYWJCIO1MG9W;2BI6SVQ8H88MA8JU3Z2VII1UQTYP68;2RCC26DG67D1HH89DVRCUK2K782E7J;1352391604;Windows;Chrome-22;United States;67.41.201.244;13;260;123;0;2126;1;1;93
A22SZHZTF72TRM;2OKCWY2AOO2G60RPMZ7QYCM9B64334;2RCC26DG67D1HH89DVRCUK2K782E7J;1352391604;Windows;Chrome-23;United States;209.23.243.42;18;495;470;0;3321;1;1;154
AWE8DF2ZY0LB2;20W5UUKQOYGN2AEWQJFG610ALRAFXP;2RCC26DG67D1HH89DVRCUK2K782E7J;1352391604;Windows;Chrome-22;India;122.164.41.191;35;498;460;0;2484;1;1;180
A3MLRH6BKWKP7M;2IF46UXFCD45HQR2LOJNZKIQWPAVTA;2RCC26DG67D1HH89DVRCUK2K782E7J;1352391604;Windows;Firefox-17;India;117.206.130.118;18;33;20;0;2147;-1;1;95
AMSWIR4J9XEIJ;2BG3W5XH0JPPCWFTWPGLYP78DHGEKH;2RCC26DG67D1HH89DVRCUK2K782E7J;1352391604;Mac;Chrome-20;United States;96.19.52.191;15;322;400;0;1635;-1;1;119
A2PEL01IY4YBLJ;20NJ8EBDPGFLQ9PYUA0RTDWLHRVG1X;2RCC26DG67D1HH89DVRCUK2K782E7J;1352391604;Windows;Chrome-22;India;122.174.101.16;16;52;40;0;3744;-1;1;81
A2ZRJMJTE6ID97;262VKI62NJQ2LLF87KHHCBKO5R8LTH;2RCC26DG67D1HH89DVRCUK2K782E7J;1352391604;Windows;Firefox-12;India;14.99.76.81;8;219;200;219;5958;1;-1;41
ASFFW3A9FFHPN;2O4WA6X3YOCCZEPY3VOPZINLBTSOPW;2RCC26DG67D1HH89DVRCUK2K782E7J;1352391604;Windows;Chrome-22;United States;68.13.55.244;1;206;300;206;3461;-1;-1;5
A3K9PGO5F3KCR8;2CCYEPLSP75K50J5HEFANQETOFKXR1;2RCC26DG67D1HH89DVRCUK2K782E7J;1352391604;Linux;Firefox-7;India;117.213.59.50;7;228;250;228;4778;0;-1;43
A34ZSF2JSRXIRP;20O618N46UXFWRHEVN5TTDSQMGBPR5;2RCC26DG67D1HH89DVRCUK2K782E7J;1352391605;Windows;Firefox-16;United States;107.15.89.57;23;402;380;0;3095;1;1;190
A2KLDA6MCHVV4V;249YW2GTP9RAR6I5KCX94SOI0WDTO6;2RCC26DG67D1HH89DVRCUK2K782E7J;1352391605;Windows;Firefox-5;India;122.174.108.68;18;73;90;0;2958;0;1;142
A1QY7CBO7FNPO8;2ZKI2KYEPLSPRJXUKHNJ9OAKJAKOUS;2RCC26DG67D1HH89DVRCUK2K782E7J;1352391605;Linux;Chrome-18;United States;172.223.132.33;15;131;160;0;3638;-1;1;88
A3DZJK7NGC9DPG;2FD8I9NZW6HEJK1N21N7Z86C9QFMW9;2RCC26DG67D1HH89DVRCUK2K782E7J;1352391605;Windows;Firefox-16;United States;75.132.153.17;5;379;382;379;4989;-1;-1;30
A3H3TOM3XQQJER;28F5F3Q0JG5TI00LU924FF9VLOAHDM;2RCC26DG67D1HH89DVRCUK2K782E7J;1352391606;Windows;Chrome-23;Tunisia;197.2.184.3;3;293;150;293;5323;1;-1;7
AC79XT2Z4O3JZ;24PFCD45XCET7R5WRV9N9TGSXW3XZU;2RCC26DG67D1HH89DVRCUK2K782E7J;1352391606;Windows;Chrome-22;United States;71.28.217.24;2;499;490;499;7659;1;-1;10
A25JVQ5GJRGMM1;2U1RJ85OZIZE10NJNXFOW5EZITEX9E;2RCC26DG67D1HH89DVRCUK2K782E7J;1352391606;Windows;Chrome-22;India;106.211.155.150;21;322;300;0;2168;1;1;153
A398FQD40SOL0R;25J14IXKO2L9MVRLULXX9YOF5BUBC1;2RCC26DG67D1HH89DVRCUK2K782E7J;1352391607;Windows;Firefox-16;United States;72.18.42.139;30;38;35;0;3066;0;1;246
ANC4V5VPVPYFN;25Y6RLPHIT3HFAN4ITX2TJQ5U3VH95;2RCC26DG67D1HH89DVRCUK2K782E7J;1352391607;Windows;Chrome-22;United States;72.226.111.211;3;139;150;139;5675;0;-1;13
A33DZYZ8E2LO1D;2ZV6XBAT2D5NAC0EDEH0PG5WRII151;2RCC26DG67D1HH89DVRCUK2K782E7J;1352391607;Windows;Safari-5.1;United States;99.73.182.81;14;335;230;0;4081;0;1;102
A1LLJH1R94P26O;2AJYNJ92NJKMKJOVH4LH4W2JML37CB;2RCC26DG67D1HH89DVRCUK2K782E7J;1352391607;Windows;Chrome-22;United States;24.182.230.183;20;145;120;0;1991;1;1;163
A2XM6C78S9L8UG;20SJG5TYMNCWIPHIDKJSYHX4UFIIMZ;2RCC26DG67D1HH89DVRCUK2K782E7J;1352391607;Windows;Firefox-16;United States;186.151.136.158;18;467;589;0;2578;1;1;155
A42HOWK7GR37J;26TVP9746OQ1C13Z51X7651TD8I1LP;2RCC26DG67D1HH89DVRCUK2K782E7J;1352391607;Windows;Chrome-23;United States;68.230.29.118;8;293;300;293;2362;-1;-1;56
ACBII8A4LM01Y;2UG2L92HECWAQBG7MN3F6CP8DTJIHQ;2RCC26DG67D1HH89DVRCUK2K782E7J;1352391608;Windows;Firefox-16;India;117.202.17.98;7;488;670;488;2884;1;-1;24
AO3XB5I5QNNUI;24MU00OQKKA42W5HQDL2C80HPW5XXX;2RCC26DG67D1HH89DVRCUK2K782E7J;1352391608;Windows;Firefox-16;United States;63.228.82.54;9;204;350;204;5082;0;-1;67
AMSWIR4J9XEIJ;2BG3W5XH0JPPCWFTWPGLYP78DHGEKH;2RCC26DG67D1HH89DVRCUK2K782E7J;1352391608;Mac;Chrome-20;United States;96.19.52.191;16;410;500;0;1198;-1;1;127
ABSUHBDLLVK01;2TOKUDD8XMB3AHM8YMXUZO6WXAPODI;2RCC26DG67D1HH89DVRCUK2K782E7J;1352391608;Windows;Chrome-22;India;124.155.255.185;25;100;60;0;2369;0;1;179
A3EYWJCIO1MG9W;2BI6SVQ8H88MA8JU3Z2VII1UQTYP68;2RCC26DG67D1HH89DVRCUK2K782E7J;1352391608;Windows;Chrome-22;United States;67.41.201.244;14;272;333;0;2502;1;1;101
AWE8DF2ZY0LB2;20W5UUKQOYGN2AEWQJFG610ALRAFXP;2RCC26DG67D1HH89DVRCUK2K782E7J;1352391608;Windows;Chrome-22;India;122.164.41.191;36;61;30;0;1816;1;1;181
A2FV0CMG9S8CU0;2GK8SV7WGKCCFZYCALU3SHASJ06R14;2RCC26DG67D1HH89DVRCUK2K782E7J;1352391608;Windows;Firefox-16;United States;97.80.123.111;15;150;110;0;2588;1;1;116
AUKUYL50PIUMC;2CYDG67D1X3VKTX9AZB2PE1P0LDHAK;2RCC26DG67D1HH89DVRCUK2K782E7J;1352391608;Windows;Firefox-16;United States;112.202.28.168;3;118;140;118;4289;0;-1;26
ASSVZOJI3IN9R;2Y4CF0CP5KXPDW0RG8PGAPMAGUZXW4;2RCC26DG67D1HH89DVRCUK2K782E7J;1352391609;Windows;Chrome-22;United States;184.167.213.251;16;244;185;0;2842;1;1;139
AW9983V6TUGF8;2Z9IT3HVWAVK2KFWH1T1D2ZC2MAMET;2RCC26DG67D1HH89DVRCUK2K782E7J;1352391609;Windows;Firefox-16;India;116.202.166.75;10;374;290;374;4077;-1;-1;78
A3OZ288I9CBLWF;2W2ZHHRRLFQ08104PSSKNO9H9N5OFT;2RCC26DG67D1HH89DVRCUK2K782E7J;1352391609;Linux;Chrome-20;United States;66.233.46.185;11;241;98;0;6451;-1;1;75
A1U3PULHJJGGCC;2M8W40SPW1IN6VT7OFA3TAB94BGE1E;2RCC26DG67D1HH89DVRCUK2K782E7J;1352391609;Windows;Chrome-22;India;202.164.138.250;9;378;250;378;6294;-1;-1;73
ASFFW3A9FFHPN;2O4WA6X3YOCCZEPY3VOPZINLBTSOPW;2RCC26DG67D1HH89DVRCUK2K782E7J;1352391609;Windows;Chrome-22;United States;68.13.55.244;2;328;320;328;2655;-1;-1;15
ACAUVIM5G3NL2;21KQV66RLPHIDHU4ULMKO62QCMWE6C;2RCC26DG67D1HH89DVRCUK2K782E7J;1352391609;Windows;Chrome-22;United States;65.189.251.248;14;230;135;0;3728;-1;1;94
A1KRPGEHVB6UQV;2UE05BMJTUHYGGT2NKIADS5ZFX0LG8;2RCC26DG67D1HH89DVRCUK2K782E7J;1352391609;Windows;Firefox-16;United States;96.239.128.168;10;442;450;442;3529;-1;-1;63
A2C7S47L8RZKZ7;2QQQ4J3NAB6BZ0SOM9PIZ1TM899ER9;2RCC26DG67D1HH89DVRCUK2K782E7J;1352391610;Windows;Chrome-22;India;101.63.185.34;21;74;80;0;3050;0;1;136
A2KLDA6MCHVV4V;249YW2GTP9RAR6I5KCX94SOI0WDTO6;2RCC26DG67D1HH89DVRCUK2K782E7J;1352391610;Windows;Firefox-5;India;122.174.108.68;19;249;150;0;2166;0;1;145
AWQ2DG8RUK1ZS;299HRRLFQ0ON794QZV8OFEGU430QH1;2RCC26DG67D1HH89DVRCUK2K782E7J;1352391610;Windows;Chrome-23;United States;74.62.120.82;20;445;320;0;5243;-1;1;159
A34ZSF2JSRXIRP;20O618N46UXFWRHEVN5TTDSQMGBPR5;2RCC26DG67D1HH89DVRCUK2K782E7J;1352391610;Windows;Firefox-16;United States;107.15.89.57;24;207;290;0;2777;1;1;196
A2Q27LZW3VNDIP;2YVW5XH0JPPS2GX7C0CSV75NEI0LF9;2RCC26DG67D1HH89DVRCUK2K782E7J;1352391610;Windows;Chrome-23;India;115.241.73.198;15;447;300;0;3314;1;1;118
A3MLRH6BKWKP7M;2IF46UXFCD45HQR2LOJNZKIQWPAVTA;2RCC26DG67D1HH89DVRCUK2K782E7J;1352391610;Windows;Firefox-17;India;117.206.130.118;19;288;382;0;3031;-1;1;102
A22SZHZTF72TRM;2OKCWY2AOO2G60RPMZ7QYCM9B64334;2RCC26DG67D1HH89DVRCUK2K782E7J;1352391610;Windows;Chrome-23;United States;209.23.243.42;19;185;210;0;3223;1;1;163
A398FQD40SOL0R;25J14IXKO2L9MVRLULXX9YOF5BUBC1;2RCC26DG67D1HH89DVRCUK2K782E7J;1352391610;Windows;Firefox-16;United States;72.18.42.139;31;329;300;0;1583;0;1;256
A2UHF7UL7G0Y78;2X2B6BFMFFOYIW6ARU6DMESFTNQXK8;2RCC26DG67D1HH89DVRCUK2K782E7J;1352391611;Windows;Firefox-16;United States;108.14.233.119;3;226;150;226;5813;0;-1;5
A3DZJK7NGC9DPG;2FD8I9NZW6HEJK1N21N7Z86C9QFMW9;2RCC26DG67D1HH89DVRCUK2K782E7J;1352391611;Windows;Firefox-16;United States;75.132.153.17;6;315;278;315;3098;-1;-1;39
A2YZFD5B4LSA0R;2UO4ZMAZHHRR5T39MYEVXH1NAK3BKE;2RCC26DG67D1HH89DVRCUK2K782E7J;1352391611;Windows;Chrome-22;India;106.67.183.149;9;72;99;72;4462;0;-1;69
A3K9PGO5F3KCR8;2CCYEPLSP75K50J5HEFANQETOFKXR1;2RCC26DG67D1HH89DVRCUK2K782E7J;1352391611;Linux;Firefox-7;India;117.213.59.50;8;94;120;94;3096;0;-1;51
A1QY7CBO7FNPO8;2ZKI2KYEPLSPRJXUKHNJ9OAKJAKOUS;2RCC26DG67D1HH89DVRCUK2K782E7J;1352391611;Linux;Chrome-18;United States;172.223.132.33;16;234;200;0;3612;-1;1;97
A42HOWK7GR37J;26TVP9746OQ1C13Z51X7651TD8I1LP;2RCC26DG67D1HH89DVRCUK2K782E7J;1352391612;Windows;Chrome-23;United States;68.230.29.118;9;118;150;118;2330;-1;-1;64
A33DZYZ8E2LO1D;2ZV6XBAT2D5NAC0EDEH0PG5WRII151;2RCC26DG67D1HH89DVRCUK2K782E7J;1352391612;Windows;Safari-5.1;United States;99.73.182.81;15;267;300;0;2808;0;1;111
A2XM6C78S9L8UG;20SJG5TYMNCWIPHIDKJSYHX4UFIIMZ;2RCC26DG67D1HH89DVRCUK2K782E7J;1352391612;Windows;Firefox-16;United States;186.151.136.158;19;270;211;0;2507;1;1;163
AMSWIR4J9XEIJ;2BG3W5XH0JPPCWFTWPGLYP78DHGEKH;2RCC26DG67D1HH89DVRCUK2K782E7J;1352391612;Mac;Chrome-20;United States;96.19.52.191;17;186;250;0;1970;-1;1;134
A38PDFJ9KGQGLV;22IV66RLPHITNV8586BIC2NMJYV7FM;2RCC26DG67D1HH89DVRCUK2K782E7J;1352391612;Windows;Firefox-16;United States;69.108.138.140;1;349;100;349;12099;-1;-1;0
A2PEL01IY4YBLJ;20NJ8EBDPGFLQ9PYUA0RTDWLHRVG1X;2RCC26DG67D1HH89DVRCUK2K782E7J;1352391612;Windows;Chrome-22;India;122.174.101.16;17;13;18;0;4836;-1;1;87
A25JVQ5GJRGMM1;2U1RJ85OZIZE10NJNXFOW5EZITEX9E;2RCC26DG67D1HH89DVRCUK2K782E7J;1352391612;Windows;Chrome-22;India;106.211.155.150;22;117;100;0;2862;1;1;162
A3EYWJCIO1MG9W;2BI6SVQ8H88MA8JU3Z2VII1UQTYP68;2RCC26DG67D1HH89DVRCUK2K782E7J;1352391612;Windows;Chrome-22;United States;67.41.201.244;15;215;222;0;1775;1;1;111
A1LLJH1R94P26O;2AJYNJ92NJKMKJOVH4LH4W2JML37CB;2RCC26DG67D1HH89DVRCUK2K782E7J;1352391613;Windows;Chrome-22;United States;24.182.230.183;21;472;370;0;3571;1;1;171
A2TPIS2HB11T7R;21FDWIOV1S7S7HQ2E5S34DZBG4LYJH;2RCC26DG67D1HH89DVRCUK2K782E7J;1352391613;Windows;Chrome-23;India;183.82.179.106;2;375;320;375;7790;-1;-1;13
A1BHVRE037LMAY;2PC0COK2JE1MR3XT7WIWCOZD5WXMTJ;2RCC26DG67D1HH89DVRCUK2K782E7J;1352391613;Windows;Firefox-14;United States;71.189.6.239;2;216;250;216;21023;0;-1;9
A3H3TOM3XQQJER;28F5F3Q0JG5TI00LU924FF9VLOAHDM;2RCC26DG67D1HH89DVRCUK2K782E7J;1352391613;Windows;Chrome-23;Tunisia;197.2.184.3;4;299;350;299;4590;1;-1;16
ANC4V5VPVPYFN;25Y6RLPHIT3HFAN4ITX2TJQ5U3VH95;2RCC26DG67D1HH89DVRCUK2K782E7J;1352391613;Windows;Chrome-22;United States;72.226.111.211;4;447;500;447;4044;0;-1;22
AWE8DF2ZY0LB2;20W5UUKQOYGN2AEWQJFG610ALRAFXP;2RCC26DG67D1HH89DVRCUK2K782E7J;1352391613;Windows;Chrome-22;India;122.164.41.191;37;326;280;0;2619;1;1;190
ASFFW3A9FFHPN;2O4WA6X3YOCCZEPY3VOPZINLBTSOPW;2RCC26DG67D1HH89DVRCUK2K782E7J;1352391614;Windows;Chrome-22;United States;68.13.55.244;3;55;30;55;2468;-1;-1;17
A398FQD40SOL0R;25J14IXKO2L9MVRLULXX9YOF5BUBC1;2RCC26DG67D1HH89DVRCUK2K782E7J;1352391614;Windows;Firefox-16;United States;72.18.42.139;32;302;300;0;1477;0;1;266
ASSVZOJI3IN9R;2Y4CF0CP5KXPDW0RG8PGAPMAGUZXW4;2RCC26DG67D1HH89DVRCUK2K782E7J;1352391614;Windows;Chrome-22;United States;184.167.213.251;17;38;45;0;3150;1;1;148
AW9983V6TUGF8;2Z9IT3HVWAVK2KFWH1T1D2ZC2MAMET;2RCC26DG67D1HH89DVRCUK2K782E7J;1352391614;Windows;Firefox-16;India;116.202.166.75;11;110;100;0;2472;-1;1;88
ACAUVIM5G3NL2;21KQV66RLPHIDHU4ULMKO62QCMWE6C;2RCC26DG67D1HH89DVRCUK2K782E7J;1352391615;Windows;Chrome-22;United States;65.189.251.248;15;346;125;0;3049;-1;1;94
A2ZRJMJTE6ID97;262VKI62NJQ2LLF87KHHCBKO5R8LTH;2RCC26DG67D1HH89DVRCUK2K782E7J;1352391615;Windows;Firefox-12;India;14.99.76.81;9;126;200;126;6809;1;-1;45
AC79XT2Z4O3JZ;24PFCD45XCET7R5WRV9N9TGSXW3XZU;2RCC26DG67D1HH89DVRCUK2K782E7J;1352391615;Windows;Chrome-22;United States;71.28.217.24;3;92;89;92;6427;1;-1;20
ABSUHBDLLVK01;2TOKUDD8XMB3AHM8YMXUZO6WXAPODI;2RCC26DG67D1HH89DVRCUK2K782E7J;1352391615;Windows;Chrome-22;India;124.155.255.185;26;57;65;0;4209;0;1;188
AO3XB5I5QNNUI;24MU00OQKKA42W5HQDL2C80HPW5XXX;2RCC26DG67D1HH89DVRCUK2K782E7J;1352391615;Windows;Firefox-16;United States;63.228.82.54;10;286;350;286;4841;0;-1;75
A34ZSF2JSRXIRP;20O618N46UXFWRHEVN5TTDSQMGBPR5;2RCC26DG67D1HH89DVRCUK2K782E7J;1352391615;Windows;Firefox-16;United States;107.15.89.57;25;416;380;0;2812;1;1;206
A2KLDA6MCHVV4V;249YW2GTP9RAR6I5KCX94SOI0WDTO6;2RCC26DG67D1HH89DVRCUK2K782E7J;1352391615;Windows;Firefox-5;India;122.174.108.68;20;114;85;0;2232;0;1;152
A2C7S47L8RZKZ7;2QQQ4J3NAB6BZ0SOM9PIZ1TM899ER9;2RCC26DG67D1HH89DVRCUK2K782E7J;1352391615;Windows;Chrome-22;India;101.63.185.34;22;254;350;0;2900;0;1;142
A42HOWK7GR37J;26TVP9746OQ1C13Z51X7651TD8I1LP;2RCC26DG67D1HH89DVRCUK2K782E7J;1352391616;Windows;Chrome-23;United States;68.230.29.118;10;337;250;337;2047;-1;-1;71
AUKUYL50PIUMC;2CYDG67D1X3VKTX9AZB2PE1P0LDHAK;2RCC26DG67D1HH89DVRCUK2K782E7J;1352391616;Windows;Firefox-16;United States;112.202.28.168;4;384;110;384;4684;0;-1;26
A22SZHZTF72TRM;2OKCWY2AOO2G60RPMZ7QYCM9B64334;2RCC26DG67D1HH89DVRCUK2K782E7J;1352391616;Windows;Chrome-23;United States;209.23.243.42;20;378;410;0;3088;1;1;173
A3MLRH6BKWKP7M;2IF46UXFCD45HQR2LOJNZKIQWPAVTA;2RCC26DG67D1HH89DVRCUK2K782E7J;1352391616;Windows;Firefox-17;India;117.206.130.118;20;482;700;0;3171;-1;1;107
A1U3PULHJJGGCC;2M8W40SPW1IN6VT7OFA3TAB94BGE1E;2RCC26DG67D1HH89DVRCUK2K782E7J;1352391616;Windows;Chrome-22;India;202.164.138.250;10;115;80;115;3899;-1;-1;79
A3OZ288I9CBLWF;2W2ZHHRRLFQ08104PSSKNO9H9N5OFT;2RCC26DG67D1HH89DVRCUK2K782E7J;1352391616;Linux;Chrome-20;United States;66.233.46.185;12;57;78;0;4764;-1;1;82
A3EYWJCIO1MG9W;2BI6SVQ8H88MA8JU3Z2VII1UQTYP68;2RCC26DG67D1HH89DVRCUK2K782E7J;1352391616;Windows;Chrome-22;United States;67.41.201.244;16;167;111;0;1797;1;1;116
ACBII8A4LM01Y;2UG2L92HECWAQBG7MN3F6CP8DTJIHQ;2RCC26DG67D1HH89DVRCUK2K782E7J;1352391616;Windows;Firefox-16;India;117.202.17.98;8;104;70;104;5884;1;-1;29
A3DZJK7NGC9DPG;2FD8I9NZW6HEJK1N21N7Z86C9QFMW9;2RCC26DG67D1HH89DVRCUK2K782E7J;1352391617;Windows;Firefox-16;United States;75.132.153.17;7;106;155;106;3448;-1;-1;44
A1LLJH1R94P26O;2AJYNJ92NJKMKJOVH4LH4W2JML37CB;2RCC26DG67D1HH89DVRCUK2K782E7J;1352391617;Windows;Chrome-22;United States;24.182.230.183;22;429;370;0;1980;1;1;180
A25JVQ5GJRGMM1;2U1RJ85OZIZE10NJNXFOW5EZITEX9E;2RCC26DG67D1HH89DVRCUK2K782E7J;1352391617;Windows;Chrome-22;India;106.211.155.150;23;155;100;0;2270;1;1;166
AMSWIR4J9XEIJ;2BG3W5XH0JPPCWFTWPGLYP78DHGEKH;2RCC26DG67D1HH89DVRCUK2K782E7J;1352391617;Mac;Chrome-20;United States;96.19.52.191;18;211;14;0;3000;-1;1;134
A2XM6C78S9L8UG;20SJG5TYMNCWIPHIDKJSYHX4UFIIMZ;2RCC26DG67D1HH89DVRCUK2K782E7J;1352391617;Windows;Firefox-16;United States;186.151.136.158;20;179;215;0;2879;1;1;172
A2Q27LZW3VNDIP;2YVW5XH0JPPS2GX7C0CSV75NEI0LF9;2RCC26DG67D1HH89DVRCUK2K782E7J;1352391617;Windows;Chrome-23;India;115.241.73.198;16;140;100;0;2074;1;1;124
A398FQD40SOL0R;25J14IXKO2L9MVRLULXX9YOF5BUBC1;2RCC26DG67D1HH89DVRCUK2K782E7J;1352391617;Windows;Firefox-16;United States;72.18.42.139;33;191;300;0;1043;0;1;270
A2FV0CMG9S8CU0;2GK8SV7WGKCCFZYCALU3SHASJ06R14;2RCC26DG67D1HH89DVRCUK2K782E7J;1352391617;Windows;Firefox-16;United States;97.80.123.111;16;346;399;0;6310;1;1;125
A2UHF7UL7G0Y78;2X2B6BFMFFOYIW6ARU6DMESFTNQXK8;2RCC26DG67D1HH89DVRCUK2K782E7J;1352391618;Windows;Firefox-16;United States;108.14.233.119;4;424;400;424;4253;0;-1;15
AWE8DF2ZY0LB2;20W5UUKQOYGN2AEWQJFG610ALRAFXP;2RCC26DG67D1HH89DVRCUK2K782E7J;1352391618;Windows;Chrome-22;India;122.164.41.191;38;464;400;0;2438;1;1;199
A2PEL01IY4YBLJ;20NJ8EBDPGFLQ9PYUA0RTDWLHRVG1X;2RCC26DG67D1HH89DVRCUK2K782E7J;1352391618;Windows;Chrome-22;India;122.174.101.16;18;443;400;0;3395;-1;1;97
A1KRPGEHVB6UQV;2UE05BMJTUHYGGT2NKIADS5ZFX0LG8;2RCC26DG67D1HH89DVRCUK2K782E7J;1352391619;Windows;Firefox-16;United States;96.239.128.168;11;67;40;0;6710;-1;1;66
AWQ2DG8RUK1ZS;299HRRLFQ0ON794QZV8OFEGU430QH1;2RCC26DG67D1HH89DVRCUK2K782E7J;1352391619;Windows;Chrome-23;United States;74.62.120.82;21;15;24;0;6744;-1;1;163
A3K9PGO5F3KCR8;2CCYEPLSP75K50J5HEFANQETOFKXR1;2RCC26DG67D1HH89DVRCUK2K782E7J;1352391619;Linux;Firefox-7;India;117.213.59.50;9;290;250;290;4844;0;-1;60
A2YZFD5B4LSA0R;2UO4ZMAZHHRR5T39MYEVXH1NAK3BKE;2RCC26DG67D1HH89DVRCUK2K782E7J;1352391619;Windows;Chrome-22;India;106.67.183.149;10;98;102;98;4914;0;-1;79
A34ZSF2JSRXIRP;20O618N46UXFWRHEVN5TTDSQMGBPR5;2RCC26DG67D1HH89DVRCUK2K782E7J;1352391620;Windows;Firefox-16;United States;107.15.89.57;26;113;120;0;2431;1;1;216
A33DZYZ8E2LO1D;2ZV6XBAT2D5NAC0EDEH0PG5WRII151;2RCC26DG67D1HH89DVRCUK2K782E7J;1352391620;Windows;Safari-5.1;United States;99.73.182.81;16;69;41;0;5566;0;1;114
ANC4V5VPVPYFN;25Y6RLPHIT3HFAN4ITX2TJQ5U3VH95;2RCC26DG67D1HH89DVRCUK2K782E7J;1352391620;Windows;Chrome-22;United States;72.226.111.211;5;363;450;363;4448;0;-1;30
ASSVZOJI3IN9R;2Y4CF0CP5KXPDW0RG8PGAPMAGUZXW4;2RCC26DG67D1HH89DVRCUK2K782E7J;1352391620;Windows;Chrome-22;United States;184.167.213.251;18;277;175;0;3684;1;1;152
A42HOWK7GR37J;26TVP9746OQ1C13Z51X7651TD8I1LP;2RCC26DG67D1HH89DVRCUK2K782E7J;1352391620;Windows;Chrome-23;United States;68.230.29.118;11;473;450;0;2424;-1;1;81
AW9983V6TUGF8;2Z9IT3HVWAVK2KFWH1T1D2ZC2MAMET;2RCC26DG67D1HH89DVRCUK2K782E7J;1352391620;Windows;Firefox-16;India;116.202.166.75;12;476;500;0;3292;-1;1;98
A3EYWJCIO1MG9W;2BI6SVQ8H88MA8JU3Z2VII1UQTYP68;2RCC26DG67D1HH89DVRCUK2K782E7J;1352391620;Windows;Chrome-22;United States;67.41.201.244;17;427;222;0;1691;1;1;118
A2KLDA6MCHVV4V;249YW2GTP9RAR6I5KCX94SOI0WDTO6;2RCC26DG67D1HH89DVRCUK2K782E7J;1352391621;Windows;Firefox-5;India;122.174.108.68;21;440;400;0;2688;0;1;162
A1LLJH1R94P26O;2AJYNJ92NJKMKJOVH4LH4W2JML37CB;2RCC26DG67D1HH89DVRCUK2K782E7J;1352391621;Windows;Chrome-22;United States;24.182.230.183;23;43;30;0;2110;1;1;186
A398FQD40SOL0R;25J14IXKO2L9MVRLULXX9YOF5BUBC1;2RCC26DG67D1HH89DVRCUK2K782E7J;1352391621;Windows;Firefox-16;United States;72.18.42.139;34;364;400;0;1481;0;1;280
A1QY7CBO7FNPO8;2ZKI2KYEPLSPRJXUKHNJ9OAKJAKOUS;2RCC26DG67D1HH89DVRCUK2K782E7J;1352391622;Linux;Chrome-18;United States;172.223.132.33;17;331;250;0;2948;-1;1;104
A22SZHZTF72TRM;2OKCWY2AOO2G60RPMZ7QYCM9B64334;2RCC26DG67D1HH89DVRCUK2K782E7J;1352391622;Windows;Chrome-23;United States;209.23.243.42;21;216;290;0;2820;1;1;180
AC79XT2Z4O3JZ;24PFCD45XCET7R5WRV9N9TGSXW3XZU;2RCC26DG67D1HH89DVRCUK2K782E7J;1352391622;Windows;Chrome-22;United States;71.28.217.24;4;426;500;426;4587;1;-1;29
ACAUVIM5G3NL2;21KQV66RLPHIDHU4ULMKO62QCMWE6C;2RCC26DG67D1HH89DVRCUK2K782E7J;1352391622;Windows;Chrome-22;United States;65.189.251.248;16;93;86;0;4893;-1;1;104
A3MLRH6BKWKP7M;2IF46UXFCD45HQR2LOJNZKIQWPAVTA;2RCC26DG67D1HH89DVRCUK2K782E7J;1352391622;Windows;Firefox-17;India;117.206.130.118;21;390;750;0;2473;-1;1;109
AMSWIR4J9XEIJ;2BG3W5XH0JPPCWFTWPGLYP78DHGEKH;2RCC26DG67D1HH89DVRCUK2K782E7J;1352391622;Mac;Chrome-20;United States;96.19.52.191;19;476;450;0;2454;-1;1;144
A2TPIS2HB11T7R;21FDWIOV1S7S7HQ2E5S34DZBG4LYJH;2RCC26DG67D1HH89DVRCUK2K782E7J;1352391622;Windows;Chrome-23;India;183.82.179.106;3;376;400;376;7100;-1;-1;23
A25JVQ5GJRGMM1;2U1RJ85OZIZE10NJNXFOW5EZITEX9E;2RCC26DG67D1HH89DVRCUK2K782E7J;1352391622;Windows;Chrome-22;India;106.211.155.150;24;81;50;0;2401;1;1;170
A3H3TOM3XQQJER;28F5F3Q0JG5TI00LU924FF9VLOAHDM;2RCC26DG67D1HH89DVRCUK2K782E7J;1352391622;Windows;Chrome-23;Tunisia;197.2.184.3;5;312;180;312;3443;1;-1;19
AO3XB5I5QNNUI;24MU00OQKKA42W5HQDL2C80HPW5XXX;2RCC26DG67D1HH89DVRCUK2K782E7J;1352391622;Windows;Firefox-16;United States;63.228.82.54;11;256;250;0;5087;0;1;85
A3DZJK7NGC9DPG;2FD8I9NZW6HEJK1N21N7Z86C9QFMW9;2RCC26DG67D1HH89DVRCUK2K782E7J;1352391622;Windows;Firefox-16;United States;75.132.153.17;8;467;487;467;3539;-1;-1;54
A2C7S47L8RZKZ7;2QQQ4J3NAB6BZ0SOM9PIZ1TM899ER9;2RCC26DG67D1HH89DVRCUK2K782E7J;1352391622;Windows;Chrome-22;India;101.63.185.34;23;56;70;0;3288;0;1;150
A2ZRJMJTE6ID97;262VKI62NJQ2LLF87KHHCBKO5R8LTH;2RCC26DG67D1HH89DVRCUK2K782E7J;1352391622;Windows;Firefox-12;India;14.99.76.81;10;432;458;432;4179;1;-1;55
A38PDFJ9KGQGLV;22IV66RLPHITNV8586BIC2NMJYV7FM;2RCC26DG67D1HH89DVRCUK2K782E7J;1352391622;Windows;Firefox-16;United States;69.108.138.140;2;110;100;110;8028;-1;-1;10
ABSUHBDLLVK01;2TOKUDD8XMB3AHM8YMXUZO6WXAPODI;2RCC26DG67D1HH89DVRCUK2K782E7J;1352391623;Windows;Chrome-22;India;124.155.255.185;27;447;390;0;5061;0;1;197
A3OZ288I9CBLWF;2W2ZHHRRLFQ08104PSSKNO9H9N5OFT;2RCC26DG67D1HH89DVRCUK2K782E7J;1352391623;Linux;Chrome-20;United States;66.233.46.185;13;47;46;0;4017;-1;1;92
AUKUYL50PIUMC;2CYDG67D1X3VKTX9AZB2PE1P0LDHAK;2RCC26DG67D1HH89DVRCUK2K782E7J;1352391623;Windows;Firefox-16;United States;112.202.28.168;5;107;160;107;4760;0;-1;31
AWE8DF2ZY0LB2;20W5UUKQOYGN2AEWQJFG610ALRAFXP;2RCC26DG67D1HH89DVRCUK2K782E7J;1352391623;Windows;Chrome-22;India;122.164.41.191;39;441;400;0;2299;1;1;209
A2XM6C78S9L8UG;20SJG5TYMNCWIPHIDKJSYHX4UFIIMZ;2RCC26DG67D1HH89DVRCUK2K782E7J;1352391623;Windows;Firefox-16;United States;186.151.136.158;21;347;403;0;2949;1;1;181
A1U3PULHJJGGCC;2M8W40SPW1IN6VT7OFA3TAB94BGE1E;2RCC26DG67D1HH89DVRCUK2K782E7J;1352391623;Windows;Chrome-22;India;202.164.138.250;11;454;320;0;4332;-1;1;85
A2UHF7UL7G0Y78;2X2B6BFMFFOYIW6ARU6DMESFTNQXK8;2RCC26DG67D1HH89DVRCUK2K782E7J;1352391624;Windows;Firefox-16;United States;108.14.233.119;5;240;100;240;3814;0;-1;15
A1BHVRE037LMAY;2PC0COK2JE1MR3XT7WIWCOZD5WXMTJ;2RCC26DG67D1HH89DVRCUK2K782E7J;1352391624;Windows;Firefox-14;United States;71.189.6.239;3;209;150;209;8661;0;-1;15
ASSVZOJI3IN9R;2Y4CF0CP5KXPDW0RG8PGAPMAGUZXW4;2RCC26DG67D1HH89DVRCUK2K782E7J;1352391624;Windows;Chrome-22;United States;184.167.213.251;19;95;50;0;2061;1;1;154
A33DZYZ8E2LO1D;2ZV6XBAT2D5NAC0EDEH0PG5WRII151;2RCC26DG67D1HH89DVRCUK2K782E7J;1352391624;Windows;Safari-5.1;United States;99.73.182.81;17;271;220;0;2632;0;1;122
A2PEL01IY4YBLJ;20NJ8EBDPGFLQ9PYUA0RTDWLHRVG1X;2RCC26DG67D1HH89DVRCUK2K782E7J;1352391625;Windows;Chrome-22;India;122.174.101.16;19;376;25;0;3692;-1;1;97
A3EYWJCIO1MG9W;2BI6SVQ8H88MA8JU3Z2VII1UQTYP68;2RCC26DG67D1HH89DVRCUK2K782E7J;1352391625;Windows;Chrome-22;United States;67.41.201.244;18;257;150;0;2123;1;1;121
AWQ2DG8RUK1ZS;299HRRLFQ0ON794QZV8OFEGU430QH1;2RCC26DG67D1HH89DVRCUK2K782E7J;1352391625;Windows;Chrome-23;United States;74.62.120.82;22;479;360;0;4319;-1;1;170
A42HOWK7GR37J;26TVP9746OQ1C13Z51X7651TD8I1LP;2RCC26DG67D1HH89DVRCUK2K782E7J;1352391625;Windows;Chrome-23;United States;68.230.29.118;12;85;100;0;2505;-1;1;90
A398FQD40SOL0R;25J14IXKO2L9MVRLULXX9YOF5BUBC1;2RCC26DG67D1HH89DVRCUK2K782E7J;1352391625;Windows;Firefox-16;United States;72.18.42.139;35;99;150;0;1560;0;1;285
A34ZSF2JSRXIRP;20O618N46UXFWRHEVN5TTDSQMGBPR5;2RCC26DG67D1HH89DVRCUK2K782E7J;1352391625;Windows;Firefox-16;United States;107.15.89.57;27;38;49;0;3293;1;1;224
A1LLJH1R94P26O;2AJYNJ92NJKMKJOVH4LH4W2JML37CB;2RCC26DG67D1HH89DVRCUK2K782E7J;1352391625;Windows;Chrome-22;United States;24.182.230.183;24;490;400;0;1742;1;1;194
A2FV0CMG9S8CU0;2GK8SV7WGKCCFZYCALU3SHASJ06R14;2RCC26DG67D1HH89DVRCUK2K782E7J;1352391625;Windows;Firefox-16;United States;97.80.123.111;17;219;175;0;5206;1;1;133
A2KLDA6MCHVV4V;249YW2GTP9RAR6I5KCX94SOI0WDTO6;2RCC26DG67D1HH89DVRCUK2K782E7J;1352391626;Windows;Firefox-5;India;122.174.108.68;22;371;350;0;2266;0;1;172
AMSWIR4J9XEIJ;2BG3W5XH0JPPCWFTWPGLYP78DHGEKH;2RCC26DG67D1HH89DVRCUK2K782E7J;1352391626;Mac;Chrome-20;United States;96.19.52.191;20;329;300;0;2029;-1;1;154
A1KRPGEHVB6UQV;2UE05BMJTUHYGGT2NKIADS5ZFX0LG8;2RCC26DG67D1HH89DVRCUK2K782E7J;1352391626;Windows;Firefox-16;United States;96.239.128.168;12;106;100;0;4946;-1;1;76
A3K9PGO5F3KCR8;2CCYEPLSP75K50J5HEFANQETOFKXR1;2RCC26DG67D1HH89DVRCUK2K782E7J;1352391627;Linux;Firefox-7;India;117.213.59.50;10;260;400;260;5030;0;-1;64
ANC4V5VPVPYFN;25Y6RLPHIT3HFAN4ITX2TJQ5U3VH95;2RCC26DG67D1HH89DVRCUK2K782E7J;1352391627;Windows;Chrome-22;United States;72.226.111.211;6;326;450;326;4742;0;-1;36
A1QY7CBO7FNPO8;2ZKI2KYEPLSPRJXUKHNJ9OAKJAKOUS;2RCC26DG67D1HH89DVRCUK2K782E7J;1352391627;Linux;Chrome-18;United States;172.223.132.33;18;270;175;0;3283;-1;1;108
A2Q27LZW3VNDIP;2YVW5XH0JPPS2GX7C0CSV75NEI0LF9;2RCC26DG67D1HH89DVRCUK2K782E7J;1352391627;Windows;Chrome-23;India;115.241.73.198;17;344;280;0;5009;1;1;132
ACBII8A4LM01Y;2UG2L92HECWAQBG7MN3F6CP8DTJIHQ;2RCC26DG67D1HH89DVRCUK2K782E7J;1352391627;Windows;Firefox-16;India;117.202.17.98;9;390;480;390;5344;1;-1;37
A3MLRH6BKWKP7M;2IF46UXFCD45HQR2LOJNZKIQWPAVTA;2RCC26DG67D1HH89DVRCUK2K782E7J;1352391627;Windows;Firefox-17;India;117.206.130.118;22;68;35;0;2374;-1;1;110
A22SZHZTF72TRM;2OKCWY2AOO2G60RPMZ7QYCM9B64334;2RCC26DG67D1HH89DVRCUK2K782E7J;1352391627;Windows;Chrome-23;United States;209.23.243.42;22;413;460;0;2955;1;1;190
A2C7S47L8RZKZ7;2QQQ4J3NAB6BZ0SOM9PIZ1TM899ER9;2RCC26DG67D1HH89DVRCUK2K782E7J;1352391627;Windows;Chrome-22;India;101.63.185.34;24;37;50;0;2292;0;1;157
A2YZFD5B4LSA0R;2UO4ZMAZHHRR5T39MYEVXH1NAK3BKE;2RCC26DG67D1HH89DVRCUK2K782E7J;1352391627;Windows;Chrome-22;India;106.67.183.149;11;308;414;0;5226;0;1;86
A2QT68NJYAJV9P;2D5HJHP4BDDK0IBHP3O933G6Y3PY5U;2RCC26DG67D1HH89DVRCUK2K782E7J;1352391628;an unknown OS;Safari-6;United States;71.86.229.74;1;498;175;498;9692;-1;-1;0
A3DZJK7NGC9DPG;2FD8I9NZW6HEJK1N21N7Z86C9QFMW9;2RCC26DG67D1HH89DVRCUK2K782E7J;1352391628;Windows;Firefox-16;United States;75.132.153.17;9;146;179;146;3422;-1;-1;62
AWE8DF2ZY0LB2;20W5UUKQOYGN2AEWQJFG610ALRAFXP;2RCC26DG67D1HH89DVRCUK2K782E7J;1352391628;Windows;Chrome-22;India;122.164.41.191;40;409;360;0;2531;1;1;218
